Folder: Thickness_Effect/Output

Note: README.md
# Thickness_Effect

My battery data analysis project

File: CoinCell_14_220209_NMC.CSV
Data_Point,Date_Time,Test_Time(s),Step_Time(s),Cycle_Index,Step_Index,Current(A),Voltage(V),Power(W),Charge_Capacity(Ah),Discharge_Capacity(Ah),Charge_Energy(Wh),Discharge_Energy(Wh),ACR(Ohm),dV/dt(V/s),Internal_Resistance(Ohm),dQ/dV(Ah/V),dV/dQ(V/Ah)
1,02/10/2022 18:38:14.733,20.000,20.000,1,1,0.00000,2.99217,0.00000,0.00000,0.00000,0.00000,0.00000,,0.0001414029,,,
27,02/10/2022 18:45:43.553,468.820,468.820,1,1,0.00000,2.98596,0.00000,0.00000,0.00000,0.00000,0.00000,,-9.150348E-05,,,
53,02/10/2022 18:54:23.571,988.838,988.838,1,1,0.00000,3.03381,0.00000,0.00000,0.00000,0.00000,0.00000,,5.950586E-05,,,
79,02/10/2022 19:03:03.588,1508.855,1508.855,1,1,0.00000,3.05701,0.00000,0.00000,0.00000,0.00000,0.00000,,1.793869E-05,,,
105,02/10/2022 19:11:43.607,2028.874,2028.874,1,1,0.00000,3.07589,0.00000,0.00000,0.00000,0.00000,0.00000,,2.145512E-05,,,
131,02/10/2022 19:20:23.627,2548.894,2548.894,1,1,0.00000,3.09556,0.00000,0.00000,0.00000,0.00000,0.00000,,4.00657E-05,,0,
157,02/10/2022 19:29:03.640,3068.907,3068.907,1,1,0.00000,3.11227,0.00000,0.00000,0.00000,0.00000,0.00000,,6.322004E-07,,,
183,02/10/2022 19:37:43.659,3588.926,3588.926,1,1,0.00000,3.12291,0.00000,0.00000,0.00000,0.00000,0.00000,,5.887269E-06,,,
209,02/10/2022 19:46:23.678,4108.945,4108.945,1,1,0.00000,3.12557,0.00000,0.00000,0.00000,0.00000,0.00000,,-4.34645E-07,,,
235,02/10/2022 19:55:03.691,4628.958,4628.958,1,1,0.00000,3.12910,0.00000,0.00000,0.00000,0.00000,0.00000,,-1.916389E-05,,,
261,02/10/2022 20:03:43.709,5148.976,5148.976,1,1,0.00000,3.13211,0.00000,0.00000,0.00000,0.00000,0.00000,,3.639104E-05,,,
287,02/10/2022 20:12:23.726,5668.993,5668.993,1,1,0.00000,3.15771,0.00000,0.00000,0.00000,0.00000,0.00000,,6.215269E-05,,,
313,02/10/2022 20:21:03.742,6189.009,6189.009,1,1,0.00000,3.17998,0.00000,0.00000,0.00000,0.00000,0.00000,,6.515616E-05,,0,
339,02/10/2022 20:29:43.765,6709.032,6709.032,1,1,0.00000,3.19274,0.00000,0.00000,0.00000,0.00000,0.00000,,5.215653E-05,,,
365,02/10/2022 20:38:23.781,7229.048,7229.048,1,1,0.00000,3.20298,0.00000,0.00000,0.00000,0.00000,0.00000,,-3.409931E-05,,,
391,02/10/2022 20:47:03.797,7749.064,7749.064,1,1,0.00000,3.20923,0.00000,0.00000,0.00000,0.00000,0.00000,,8.100068E-06,,0,
417,02/10/2022 20:55:43.812,8269.079,8269.079,1,1,0.00000,3.21619,0.00000,0.00000,0.00000,0.00000,0.00000,,-1.390864E-05,,,
443,02/10/2022 21:04:23.829,8789.096,8789.096,1,1,0.00000,3.21427,0.00000,0.00000,0.00000,0.00000,0.00000,,-2.971293E-05,,,
469,02/10/2022 21:13:03.845,9309.112,9309.112,1,1,0.00000,3.21064,0.00000,0.00000,0.00000,0.00000,0.00000,,2.185043E-05,,,
495,02/10/2022 21:21:43.863,9829.130,9829.130,1,1,0.00000,3.21571,0.00000,0.00000,0.00000,0.00000,0.00000,,0.0001152895,,,
521,02/10/2022 21:30:23.880,10349.147,10349.147,1,1,0.00000,3.19581,0.00000,0.00000,0.00000,0.00000,0.00000,,-4.429281E-05,,,
547,02/10/2022 21:39:03.899,10869.166,10869.166,1,1,0.00000,3.21196,0.00000,0.00000,0.00000,0.00000,0.00000,,-1.343426E-06,,,
573,02/10/2022 21:47:43.915,11389.182,11389.182,1,1,0.00000,3.19970,0.00000,0.00000,0.00000,0.00000,0.00000,,0.0001614518,,0,
599,02/10/2022 21:56:23.937,11909.204,11909.204,1,1,0.00000,3.20145,0.00000,0.00000,0.00000,0.00000,0.00000,,-8.787549E-05,,,
625,02/10/2022 22:05:03.952,12429.219,12429.219,1,1,0.00000,3.20921,0.00000,0.00000,0.00000,0.00000,0.00000,,4.370013E-05,,,
651,02/10/2022 22:13:43.969,12949.236,12949.236,1,1,0.00000,3.21617,0.00000,0.00000,0.00000,0.00000,0.00000,,-3.299323E-05,,0,
677,02/10/2022 22:22:23.988,13469.255,13469.255,1,1,0.00000,3.22246,0.00000,0.00000,0.00000,0.00000,0.00000,,-6.045416E-06,,,
703,02/10/2022 22:31:04.007,13989.274,13989.274,1,1,0.00000,3.22730,0.00000,0.00000,0.00000,0.00000,0.00000,,-1.81364E-05,,,
729,02/10/2022 22:37:54.840,14400.107,0.029,1,2,0.00001,3.42824,0.00003,0.00000,0.00000,0.00000,0.00000,,,,,
755,02/10/2022 22:37:55.035,14400.302,0.225,1,2,0.00004,4.28635,0.00017,0.00000,0.00000,0.00000,0.00000,,,,,
781,02/10/2022 22:37:55.192,14400.459,0.381,1,2,0.00004,4.17308,0.00016,0.00000,0.00000,0.00000,0.00000,,,,,
807,02/10/2022 22:37:55.350,14400.617,0.539,1,2,0.00003,4.03938,0.00014,0.00000,0.00000,0.00000,0.00000,,,,,
833,02/10/2022 22:37:55.501,14400.768,0.690,1,2,0.00003,4.19364,0.00013,0.00000,0.00000,0.00000,0.00000,,,,,
859,02/10/2022 22:37:55.659,14400.926,0.848,1,2,0.00003,4.37200,0.00013,0.00000,0.00000,0.00000,0.00000,,,,,
885,02/10/2022 22:37:55.814,14401.081,1.003,1,2,0.00003,4.53482,0.00012,0.00000,0.00000,0.00000,0.00000,,,,,
911,02/10/2022 22:37:56.564,14401.831,0.633,1,3,0.00000,3.52575,0.00000,0.00000,0.00000,0.00000,0.00000,,,,,
937,02/10/2022 22:38:04.591,14409.858,8.660,1,3,0.00000,3.26250,0.00000,0.00000,0.00000,0.00000,0.00000,,-0.005889663,,,
963,02/10/2022 22:46:18.593,14903.860,502.663,1,3,0.00000,3.23932,0.00000,0.00000,0.00000,0.00000,0.00000,,-9.28529E-06,,0,
989,02/10/2022 22:54:58.611,15423.878,1022.680,1,3,0.00000,3.24314,0.00000,0.00000,0.00000,0.00000,0.00000,,-2.844902E-06,,,
1015,02/10/2022 23:03:38.629,15943.896,1542.698,1,3,0.00000,3.24502,0.00000,0.00000,0.00000,0.00000,0.00000,,3.24E-06,,,
1041,02/10/2022 23:12:18.644,16463.911,2062.713,1,3,0.00000,3.24565,0.00000,0.00000,0.00000,0.00000,0.00000,,-3.753659E-06,,0,
1067,02/10/2022 23:20:58.657,16983.924,2582.727,1,3,0.00000,3.24272,0.00000,0.00000,0.00000,0.00000,0.00000,,1.857089E-06,,,
1093,02/10/2022 23:29:38.675,17503.942,3102.744,1,3,0.00000,3.23850,0.00000,0.00000,0.00000,0.00000,0.00000,,-3.402057E-05,,,
1119,02/10/2022 23:37:56.014,18001.281,0.005,1,4,0.00000,3.28400,0.00000,0.00000,0.00000,0.00000,0.00000,,0.004613677,,,
1145,02/10/2022 23:37:56.956,18002.223,0.806,1,5,0.00000,3.19109,0.00000,0.00000,0.00000,0.00000,0.00000,,,,,
1171,02/10/2022 23:45:21.560,18446.827,445.410,1,5,0.00000,3.23981,0.00000,0.00000,0.00000,0.00000,0.00000,,1.936082E-06,,,
1197,02/10/2022 23:54:01.580,18966.847,965.430,1,5,0.00000,3.24120,0.00000,0.00000,0.00000,0.00000,0.00000,,9.838783E-06,,,
1223,02/11/2022 00:02:41.598,19486.865,1485.448,1,5,0.00000,3.24126,0.00000,0.00000,0.00000,0.00000,0.00000,,4.038347E-05,,,
1249,02/11/2022 00:11:21.617,20006.884,2005.467,1,5,0.00000,3.23865,0.00000,0.00000,0.00000,0.00000,0.00000,,3.318887E-06,,,
1275,02/11/2022 00:20:01.633,20526.900,2525.483,1,5,0.00000,3.24006,0.00000,0.00000,0.00000,0.00000,0.00000,,-3.240081E-06,,,
1301,02/11/2022 00:28:41.648,21046.915,3045.498,1,5,0.00000,3.24014,0.00000,0.00000,0.00000,0.00000,0.00000,,1.99535E-05,,,
1327,02/11/2022 00:37:21.665,21566.932,3565.515,1,5,0.00000,3.24555,0.00000,0.00000,0.00000,0.00000,0.00000,,5.294678E-06,,,
1353,02/11/2022 00:37:56.417,21601.684,0.182,2,2,0.00006,4.34835,0.00027,0.00000,0.00000,0.00000,0.00000,,,,,
1379,02/11/2022 00:37:56.565,21601.832,0.329,2,2,0.00005,3.97597,0.00022,0.00000,0.00000,0.00000,0.00000,,,,,
1405,02/11/2022 00:37:56.709,21601.976,0.473,2,2,0.00005,4.12295,0.00020,0.00000,0.00000,0.00000,0.00000,,,,,
1431,02/11/2022 00:37:56.854,21602.121,0.619,2,2,0.00004,4.46033,0.00020,0.00000,0.00000,0.00000,0.00000,,,,,
1457,02/11/2022 00:37:57.005,21602.272,0.769,2,2,0.00004,4.55623,0.00018,0.00000,0.00000,0.00000,0.00000,,,,,
1483,02/11/2022 00:37:57.165,21602.432,0.929,2,2,0.00004,4.49243,0.00016,0.00000,0.00000,0.00000,0.00000,,,,,
1509,02/11/2022 00:37:57.314,21602.581,1.078,2,2,0.00003,4.64540,0.00015,0.00000,0.00000,0.00000,0.00000,,,,,
1535,02/11/2022 00:37:57.459,21602.726,1.224,2,2,0.00003,4.77880,0.00014,0.00000,0.00000,0.00000,0.00000,,,,,
1561,02/11/2022 00:37:57.600,21602.867,1.365,2,2,0.00003,3.95084,0.00010,0.00000,0.00000,0.00000,0.00000,,-6.002595,0,6.185746E-10,1.61662E+09
1587,02/11/2022 00:37:58.249,21603.516,0.588,2,3,0.00000,3.59546,0.00000,0.00000,0.00000,0.00000,0.00000,,,,,
1613,02/11/2022 00:38:02.191,21607.458,4.530,2,3,0.00000,3.32900,0.00000,0.00000,0.00000,0.00000,0.00000,,-0.02663734,,,
1639,02/11/2022 00:44:35.364,22000.631,397.703,2,3,0.00000,3.24734,0.00000,0.00000,0.00000,0.00000,0.00000,,2.410264E-05,,,
1665,02/11/2022 00:53:15.384,22520.651,917.723,2,3,0.00000,3.24908,0.00000,0.00000,0.00000,0.00000,0.00000,,1.525184E-05,,,
1691,02/11/2022 01:01:55.399,23040.666,1437.738,2,3,0.00000,3.24084,0.00000,0.00000,0.00000,0.00000,0.00000,,-1.991398E-05,,,
1717,02/11/2022 01:10:35.413,23560.680,1957.752,2,3,0.00000,3.24832,0.00000,0.00000,0.00000,0.00000,0.00000,,-1.110293E-05,,,
1743,02/11/2022 01:19:15.431,24080.698,2477.770,2,3,0.00000,3.24394,0.00000,0.00000,0.00000,0.00000,0.00000,,-2.923951E-05,,,
1769,02/11/2022 01:27:55.449,24600.716,2997.788,2,3,0.00000,3.24560,0.00000,0.00000,0.00000,0.00000,0.00000,,-2.030944E-05,,,
1795,02/11/2022 01:36:35.465,25120.732,3517.803,2,3,0.00000,3.24616,0.00000,0.00000,0.00000,0.00000,0.00000,,1.185366E-07,,0,
1821,02/11/2022 01:37:58.159,25203.426,0.276,2,5,0.00000,3.11056,0.00000,0.00000,0.00000,0.00000,0.00000,,,,,
1847,02/11/2022 01:42:41.403,25486.670,283.520,2,5,0.00000,3.24052,0.00000,0.00000,0.00000,0.00000,0.00000,,-4.899513E-05,,,
1873,02/11/2022 01:51:21.420,26006.687,803.537,2,5,0.00000,3.24072,0.00000,0.00000,0.00000,0.00000,0.00000,,-1.118204E-05,,,
1899,02/11/2022 02:00:01.441,26526.708,1323.558,2,5,0.00000,3.22988,0.00000,0.00000,0.00000,0.00000,0.00000,,-7.230912E-06,,,
1925,02/11/2022 02:08:41.462,27046.729,1843.579,2,5,0.00000,3.21383,0.00000,0.00000,0.00000,0.00000,0.00000,,-3.65886E-05,,,
1951,02/11/2022 02:17:17.569,27562.836,2359.686,2,5,0.00000,3.19886,0.00000,0.00000,0.00000,0.00000,0.00000,,-9.246008E-06,,,
1977,02/11/2022 02:25:57.586,28082.853,2879.703,2,5,0.00000,3.19434,0.00000,0.00000,0.00000,0.00000,0.00000,,-9.048368E-06,,,
2003,02/11/2022 02:34:37.604,28602.871,3399.721,2,5,0.00000,3.19762,0.00000,0.00000,0.00000,0.00000,0.00000,,-5.057855E-05,,0,
2029,02/11/2022 02:37:58.189,28803.456,0.082,4,7,0.00009,7.61558,0.00068,0.00000,0.00000,0.00000,0.00000,,,,,
2055,02/11/2022 02:37:58.549,28803.816,0.002,7,10,-0.00002,-1.37325,0.00003,0.00000,0.00000,0.00000,0.00000,,,,,
2081,02/11/2022 02:37:58.934,28804.201,0.002,10,15,-0.00012,-7.60728,0.00093,0.00000,0.00000,0.00000,0.00000,,151.1745,0,0,0
2107,02/11/2022 02:37:59.339,28804.606,0.006,12,17,-0.00014,-7.60697,0.00106,0.00000,0.00000,0.00000,0.00000,,142.0022,,,
2133,02/11/2022 02:37:59.723,28804.990,0.077,15,19,0.00008,7.61711,0.00061,0.00000,0.00000,0.00000,0.00000,,,,,
2135,02/11/2022 02:37:59.888,28805.155,0.161,15,20,0.00000,2.94873,0.00000,0.00000,0.00000,0.00000,0.00000,,-27.78798,0,0,0