Folder: Thickness_Effect/Data/Data_220228_NMC/Martin_0203_2_2022_03_04_172442

Note: README.md
# Thickness_Effect

My battery data analysis project

File: Martin_0203_2_Channel_29_IV&Aux__Wb_1.CSV
Data_Point,Date_Time,Test_Time(s),Step_Time(s),Cycle_Index,Step_Index,Current(A),Voltage(V),Power(W),Charge_Capacity(Ah),Discharge_Capacity(Ah),Charge_Energy(Wh),Discharge_Energy(Wh),ACR(Ohm),dV/dt(V/s),Internal_Resistance(Ohm),dQ/dV(Ah/V),dV/dQ(V/Ah)
1,03/04/2022 17:24:21.730,20.000,20.000,1,1,0.00000,3.28000,0.00000,0.00000,0.00000,0.00000,0.00000,,9.831369E-05,,,
190,03/04/2022 18:27:21.885,3800.155,3800.155,1,1,0.00000,3.34326,0.00000,0.00000,0.00000,0.00000,0.00000,,3.240027E-06,,,
379,03/04/2022 19:30:22.045,7580.315,7580.315,1,1,0.00000,3.35660,0.00000,0.00000,0.00000,0.00000,0.00000,,-3.753908E-06,,,
568,03/04/2022 20:33:22.214,11360.484,11360.484,1,1,0.00000,3.36361,0.00000,0.00000,0.00000,0.00000,0.00000,,1.481609E-05,,,
757,03/04/2022 21:24:05.543,14403.813,3.730,1,2,0.00103,3.74797,0.00387,0.00000,0.00000,0.00000,0.00000,,,,,
946,03/04/2022 22:18:53.186,17691.456,3291.374,1,2,0.00103,3.90874,0.00404,0.00094,0.00000,0.00372,0.00000,,-1.924116E-05,,,0
1135,03/04/2022 23:20:19.426,21377.696,3377.553,1,3,0.00000,3.68155,0.00000,0.00103,0.00000,0.00406,0.00000,,-2.331355E-05,,,
1324,03/05/2022 00:04:20.504,24018.774,2418.551,1,4,-0.00028,2.80001,-0.00079,0.00103,0.00040,0.00406,0.00117,,-6.203107E-06,,0,0
1513,03/05/2022 00:50:32.724,26790.994,1590.710,1,5,0.00000,3.54664,0.00000,0.00103,0.00048,0.00406,0.00140,,1.738681E-06,,0,
1702,03/05/2022 01:45:20.520,30078.790,1278.418,2,2,0.00103,3.84427,0.00397,0.00037,0.00000,0.00140,0.00000,,4.145104E-05,,,0
1891,03/05/2022 02:47:03.952,33782.222,1381.789,2,3,0.00000,3.72954,0.00000,0.00103,0.00000,0.00398,0.00000,,-3.089854E-05,,,
2080,03/05/2022 03:42:14.555,37092.825,1092.309,2,4,-0.00103,2.93757,-0.00304,0.00103,0.00031,0.00398,0.00103,,-0.0009667348,,0.0002982133,3339.515
2269,03/05/2022 04:25:57.028,39715.298,114.720,2,5,0.00000,3.37121,0.00000,0.00103,0.00066,0.00398,0.00202,,0.001741439,,,
2458,03/05/2022 05:24:02.685,43200.955,0.293,3,7,0.00345,3.71355,0.01279,0.00000,0.00000,0.00000,0.00000,,,,,
2647,03/05/2022 06:19:35.856,46534.126,3333.463,3,7,0.00345,4.02826,0.01388,0.00319,0.00000,0.01274,0.00000,,3.698158E-05,,,
2836,03/05/2022 07:20:57.210,50215.480,3414.792,3,8,-0.00207,3.36958,-0.00696,0.00344,0.00196,0.01376,0.00722,,-0.0004347209,,0.001348151,
3025,03/05/2022 07:45:04.800,51663.070,812.885,4,7,0.00345,3.83332,0.01321,0.00078,0.00000,0.00297,0.00000,,4.239448E-05,,0.01990114,0
3214,03/05/2022 08:46:38.701,55356.971,906.760,4,8,-0.00207,3.79404,-0.00784,0.00344,0.00052,0.01350,0.00201,,-9.004158E-05,,,
3403,03/05/2022 09:49:38.856,59137.126,4686.915,4,8,-0.00207,3.51518,-0.00727,0.00344,0.00269,0.01350,0.00999,,-0.0002283322,,0.002644981,367.6436
3592,03/05/2022 10:15:19.442,60677.712,321.230,5,7,0.00345,3.80118,0.01310,0.00031,0.00000,0.00117,0.00000,,1.639756E-05,,,
3781,03/05/2022 11:17:09.920,64388.190,431.680,5,8,-0.00207,3.82031,-0.00790,0.00344,0.00025,0.01333,0.00095,,-0.0001094013,,,
3970,03/05/2022 12:20:10.081,68168.351,4211.841,5,8,-0.00207,3.58742,-0.00741,0.00344,0.00242,0.01333,0.00899,,-0.0001125493,,,
4159,03/05/2022 12:49:34.074,69932.344,5.502,6,10,0.00345,3.65150,0.01258,0.00001,0.00000,0.00002,0.00000,,0.04942847,,1.954064E-05,53856.57
4348,03/05/2022 13:48:38.267,73476.537,3549.695,6,10,0.00345,3.98036,0.01371,0.00340,0.00000,0.01311,0.00000,,8.728221E-05,,0.01085888,
4537,03/05/2022 14:48:24.173,77062.443,3535.574,6,11,-0.00310,3.18276,-0.00987,0.00344,0.00304,0.01331,0.01104,,-0.000974076,,0.0008940957,1110.568
4726,03/05/2022 15:14:21.394,78619.664,1330.293,7,10,0.00345,3.83240,0.01320,0.00127,0.00000,0.00484,0.00000,,5.535613E-05,,,
4915,03/05/2022 16:15:49.129,82307.399,1418.000,7,11,-0.00310,3.69105,-0.01144,0.00344,0.00122,0.01332,0.00458,,-6.709283E-05,,0.01280066,77.90965
5104,03/05/2022 16:58:53.812,84892.082,0.743,8,10,0.00345,3.17859,0.01095,0.00000,0.00000,0.00000,0.00000,,,,,
5293,03/05/2022 17:43:01.107,87539.377,2648.038,8,10,0.00345,3.89988,0.01344,0.00253,0.00000,0.00972,0.00000,,5.744788E-05,,,
5482,03/05/2022 18:44:32.791,91231.061,2739.695,8,11,-0.00310,3.57772,-0.01109,0.00344,0.00236,0.01331,0.00871,,-0.0001241907,,,
5671,03/05/2022 19:09:54.970,92753.240,284.886,9,13,0.00345,3.82394,0.01317,0.00027,0.00000,0.00104,0.00000,,-5.097158E-05,,,0
5860,03/05/2022 20:11:14.153,96432.423,364.042,9,14,-0.00413,3.72650,-0.01541,0.00344,0.00042,0.01333,0.00157,,-0.0001511141,,,
6049,03/05/2022 20:52:46.216,98924.486,0.603,10,13,0.00345,3.32783,0.01146,0.00000,0.00000,0.00000,0.00000,,,,,
6238,03/05/2022 21:40:09.674,101767.944,2844.060,10,13,0.00345,3.92087,0.01351,0.00272,0.00000,0.01049,0.00000,,7.712462E-05,,,
6427,03/05/2022 22:38:28.293,105266.563,2742.652,10,14,-0.00413,3.20144,-0.01323,0.00344,0.00315,0.01335,0.01137,,-0.0009808392,,0.001121762,919.6693
6616,03/05/2022 23:08:14.214,107052.484,1532.337,11,13,0.00344,3.85132,0.01327,0.00147,0.00000,0.00562,0.00000,,4.386145E-05,,,
6805,03/06/2022 00:09:26.021,110724.291,1604.115,11,14,-0.00413,3.60876,-0.01492,0.00344,0.00184,0.01334,0.00680,,-0.000101386,,0.01131471,
6994,03/06/2022 00:36:31.959,112350.229,228.636,12,16,0.00345,3.82522,0.01318,0.00022,0.00000,0.00084,0.00000,,-5.697801E-05,,,
7183,03/06/2022 01:37:31.592,116009.862,288.153,12,17,-0.00517,3.70512,-0.01914,0.00344,0.00041,0.01333,0.00155,,-0.0001922384,,0.007214701,143.4958
7372,03/06/2022 02:11:10.989,118029.259,1.923,13,16,0.00345,3.65643,0.01260,0.00000,0.00000,0.00001,0.00000,,,,,
7561,03/06/2022 03:09:02.158,121500.428,3473.092,13,16,0.00344,3.96877,0.01367,0.00332,0.00000,0.01286,0.00000,,8.410566E-05,,0.0115449,
7750,03/06/2022 03:51:17.170,124035.440,0.410,14,16,0.00344,3.34509,0.01152,0.00000,0.00000,0.00000,0.00000,,,,,
7939,03/06/2022 04:39:30.592,126928.862,2893.832,14,16,0.00345,3.92155,0.01351,0.00277,0.00000,0.01067,0.00000,,6.381696E-05,,,
8128,03/06/2022 05:31:09.778,130028.048,2392.904,14,17,-0.00516,2.85507,-0.01474,0.00344,0.00343,0.01334,0.01210,,-0.003051404,,0.0004557879,2167.28
8317,03/06/2022 06:11:40.474,132458.744,2414.428,15,19,0.00345,3.89190,0.01341,0.00231,0.00000,0.00888,0.00000,,5.847563E-05,,,
8506,03/06/2022 07:03:13.126,135551.396,1906.966,15,20,-0.00620,2.86092,-0.01775,0.00344,0.00329,0.01334,0.01144,,-0.003183249,,0.0005433303,1797.998
8695,03/06/2022 07:45:16.289,138074.559,2505.411,16,19,0.00345,3.90433,0.01345,0.00240,0.00000,0.00924,0.00000,,5.50373E-05,,0.0170359,
8884,03/06/2022 08:36:38.389,141156.659,1987.401,16,20,-0.00620,2.80933,-0.01743,0.00344,0.00342,0.01336,0.01184,,-0.0035009,,0.0004956329,1986.392
9073,03/06/2022 09:20:08.053,143766.323,2606.940,17,19,0.00344,3.91278,0.01348,0.00249,0.00000,0.00962,0.00000,,5.511632E-05,,0.01609097,
9262,03/06/2022 10:09:43.590,146741.860,0.083,18,22,0.00344,3.30476,0.01138,0.00000,0.00000,0.00000,0.00000,,,,,
9451,03/06/2022 10:55:57.077,149515.347,2773.571,18,22,0.00345,3.92783,0.01353,0.00265,0.00000,0.01027,0.00000,,6.487473E-05,,,0
9640,03/06/2022 11:36:36.244,151954.514,1.072,19,22,0.00345,3.67491,0.01266,0.00000,0.00000,0.00000,0.00000,,,,,
9829,03/06/2022 12:33:51.847,155390.117,3436.675,19,22,0.00345,3.99754,0.01377,0.00329,0.00000,0.01283,0.00000,,8.851095E-05,,,
10018,03/06/2022 13:08:09.955,157448.225,217.804,20,22,0.00345,3.88337,0.01338,0.00021,0.00000,0.00081,0.00000,,-9.079222E-05,,0,0
10207,03/06/2022 14:07:11.786,160990.056,159.523,20,23,-0.00724,3.66244,-0.02650,0.00344,0.00032,0.01349,0.00119,,-0.000594789,,0.00340779,312.8566
10396,03/06/2022 14:44:28.797,163227.067,717.412,21,25,0.00345,3.87500,0.01335,0.00069,0.00000,0.00266,0.00000,,1.714957E-05,,,
10585,03/06/2022 15:42:16.034,166694.304,584.536,21,26,-0.00827,3.43679,-0.02841,0.00344,0.00134,0.01351,0.00478,,-0.00036264,,0.006498762,152.6264
10774,03/06/2022 16:19:30.664,168928.934,1425.030,22,25,0.00344,3.90633,0.01346,0.00136,0.00000,0.00529,0.00000,,4.702263E-05,,,
10963,03/06/2022 17:16:18.916,172337.186,1233.168,22,26,-0.00827,3.16159,-0.02614,0.00344,0.00283,0.01356,0.00976,,-0.0008364292,,0.002720849,358.8792
11152,03/06/2022 17:52:53.379,174531.649,1968.417,23,25,0.00345,3.93896,0.01357,0.00188,0.00000,0.00732,0.00000,,6.108333E-05,,,0
11341,03/06/2022 18:43:49.705,177587.975,1424.630,23,26,-0.00827,2.90218,-0.02400,0.00344,0.00327,0.01357,0.01111,,-0.002433113,,0.000939149,1041.005
11530,03/06/2022 19:25:24.930,180083.200,2461.297,24,28,0.00344,3.97717,0.01370,0.00235,0.00000,0.00919,0.00000,,7.393284E-05,,,
11719,03/06/2022 20:03:11.782,182350.052,0.583,25,28,0.00344,3.48364,0.01200,0.00000,0.00000,0.00000,0.00000,,,,,
11908,03/06/2022 20:57:12.155,185590.425,3240.956,25,28,0.00344,4.08935,0.01409,0.00310,0.00000,0.01226,0.00000,,8.021508E-05,,,
12097,03/06/2022 21:25:14.626,187272.896,154.309,26,28,0.00344,3.83869,0.01322,0.00015,0.00000,0.00056,0.00000,,0.0003456217,,0.002277456,471.515
12286,03/06/2022 22:23:47.153,190785.423,66.723,26,29,-0.00930,3.75485,-0.03493,0.00344,0.00017,0.01376,0.00066,,-0.001308146,,0.001928013,519.0134
12475,03/06/2022 22:55:22.979,192681.249,817.837,27,31,0.00345,3.94102,0.01358,0.00078,0.00000,0.00304,0.00000,,0.0001051268,,0.008719158,
12664,03/06/2022 23:47:01.093,195779.363,315.838,27,32,-0.01034,3.44242,-0.03558,0.00344,0.00091,0.01389,0.00330,,-0.001069444,,0.002667021,379.0946
12853,03/07/2022 00:20:01.251,197759.521,1496.412,28,31,0.00345,4.11896,0.01419,0.00143,0.00000,0.00574,0.00000,,9.154768E-05,,,
13042,03/07/2022 01:05:43.533,200501.803,638.582,28,32,-0.01034,3.18609,-0.03293,0.00344,0.00183,0.01423,0.00648,,-0.001047311,,0.002751949,356.5977
13231,03/07/2022 01:41:40.608,202658.878,1962.238,29,31,0.00345,4.25916,0.01467,0.00188,0.00000,0.00775,0.00000,,9.971957E-05,,,110.5847
13420,03/07/2022 02:22:33.514,205111.784,815.029,29,32,-0.01034,2.98767,-0.03088,0.00344,0.00234,0.01453,0.00811,,-0.002181675,,0.00130058,733.8448
13609,03/07/2022 03:02:55.594,207533.864,2364.090,30,34,0.00103,4.11581,0.00425,0.00068,0.00000,0.00275,0.00000,,3.532244E-05,,,
13798,03/07/2022 04:04:54.946,211253.216,2483.413,30,35,-0.00103,3.98174,-0.00411,0.00103,0.00071,0.00421,0.00287,,-3.46943E-05,,0,
13987,03/07/2022 05:06:37.488,214955.758,2585.919,31,34,0.00103,4.12138,0.00426,0.00074,0.00000,0.00303,0.00000,,4.022675E-05,,0.009299275,106.5513
14176,03/07/2022 06:08:38.325,218676.595,2706.729,31,35,-0.00103,3.97314,-0.00411,0.00103,0.00078,0.00423,0.00312,,-2.911928E-05,,,
14222,03/07/2022 06:23:31.605,219569.875,0.001,32,36,-0.00103,3.95092,-0.00408,0.00000,0.00000,0.00000,0.00000,,-1.137904E-05,0,0.01162047,0