Folder: Thickness_Effect/Data/Data_220201_NMC

Note: Data/Data_220201_NMC/Batch_220201_NMC.json
{
	"Label": "220201_NMC",
	"Date": "2022-02-01",
	"Slurry": {
				"AM": 		{"Material": "NMC_#3_GM", 		"Mass": 2699.6},
				"Carbon": 	{"Material": "Super P", 		"Mass": 150.9},
				"Binder": 	{"Material": "PVDF_NMP_220131",	"Mass": 3011.3, "Binder_Concentration": 0.0502},
				"Mixing":	{"Duration": 0.5, "rpm": 2000},
				"Drying":	{"Duration": "overnight", "Temperature": 80, "Pressure": "Vacuum"}
			  },
	"CurrentCollector":	{
							"Material": 	"Aluminum",
							"Mass": 		6.1,
							"Thickness": 	22,
							"Diameter[cm]":	1.27
						},
	"Samples":	{ "01" : {"SampleID": 1, "DoctorBlade": null, "ECCmass": null, "ECCthickness": null, "Cycler_Channel": null, "Cycler_Program": null, "StartTime": null}
				},
				
	"Comments": "The 1000 and 1100 electrode spreads showed deep cracks. Then I calendered the spreads. They got a shine to them, and the deep cracks appreared to mend somewhat. However, after punching the electrodes, they bent from the strain of the calender. This was exacerbated when electrolyte was dropped on and made it impossible to stack the coin cell. In the end I made two flooded electrodes and neither worked.",
	
	"Units":	{	"Mass": 		"mg",
					"Length": 		"um",
					"Time": 		"h",
					"Temperature": 	"C"
				}
}

Note: README.md
# Thickness_Effect

My battery data analysis project

File: Martin_0201_Channel_33_IV&Aux__Wb_1.CSV
Data_Point,Date_Time,Test_Time(s),Step_Time(s),Cycle_Index,Step_Index,Current(A),Voltage(V),Power(W),Charge_Capacity(Ah),Discharge_Capacity(Ah),Charge_Energy(Wh),Discharge_Energy(Wh),ACR(Ohm),dV/dt(V/s),Internal_Resistance(Ohm),dQ/dV(Ah/V),dV/dQ(V/Ah)
1,02/02/2022 17:30:48.569,20.001,20.001,1,1,0.00000,3.34519,0.00000,0.00000,0.00000,0.00000,0.00000,,4.123843E-05,,,
22,02/02/2022 17:37:48.582,440.014,440.014,1,1,0.00000,3.36170,0.00000,0.00000,0.00000,0.00000,0.00000,,0.0002555911,,,
43,02/02/2022 17:44:48.598,860.029,860.029,1,1,0.00000,3.37079,0.00000,0.00000,0.00000,0.00000,0.00000,,0.0001349382,,0,
64,02/02/2022 17:51:48.617,1280.048,1280.048,1,1,0.00000,3.37623,0.00000,0.00000,0.00000,0.00000,0.00000,,-8.653244E-06,,,
85,02/02/2022 17:58:48.639,1700.071,1700.071,1,1,0.00000,3.38230,0.00000,0.00000,0.00000,0.00000,0.00000,,-6.22671E-05,,0,
106,02/02/2022 18:05:48.661,2120.092,2120.092,1,1,0.00000,3.38599,0.00000,0.00000,0.00000,0.00000,0.00000,,4.737512E-05,,,
127,02/02/2022 18:09:56.195,2367.627,2367.627,1,1,0.00000,3.38745,0.00000,0.00000,0.00000,0.00000,0.00000,,3.018782E-05,,,
148,02/02/2022 18:16:56.220,2787.652,2787.652,1,1,0.00000,3.38859,0.00000,0.00000,0.00000,0.00000,0.00000,,-5.721035E-05,,0,
169,02/02/2022 18:23:56.240,3207.672,3207.672,1,1,0.00000,3.39012,0.00000,0.00000,0.00000,0.00000,0.00000,,5.2114E-05,,,
190,02/02/2022 18:28:32.500,3483.932,3483.932,1,1,0.00000,3.39143,0.00000,0.00000,0.00000,0.00000,0.00000,,1.493561E-05,,,
211,02/02/2022 18:35:32.517,3903.948,3903.948,1,1,0.00000,3.39309,0.00000,0.00000,0.00000,0.00000,0.00000,,-6.326322E-05,,,
232,02/02/2022 18:42:32.536,4323.968,4323.968,1,1,0.00000,3.39398,0.00000,0.00000,0.00000,0.00000,0.00000,,-1.971675E-05,,,
253,02/02/2022 18:49:32.556,4743.988,4743.988,1,1,0.00000,3.39502,0.00000,0.00000,0.00000,0.00000,0.00000,,-5.851805E-05,,,
274,02/02/2022 18:56:32.575,5164.007,5164.007,1,1,0.00000,3.39652,0.00000,0.00000,0.00000,0.00000,0.00000,,-1.604195E-05,,,
295,02/02/2022 19:03:32.593,5584.025,5584.025,1,1,0.00000,3.39692,0.00000,0.00000,0.00000,0.00000,0.00000,,6.282492E-05,,0,
316,02/02/2022 19:10:32.613,6004.045,6004.045,1,1,0.00000,3.39756,0.00000,0.00000,0.00000,0.00000,0.00000,,5.266976E-05,,,
337,02/02/2022 19:17:32.638,6424.070,6424.070,1,1,0.00000,3.39800,0.00000,0.00000,0.00000,0.00000,0.00000,,1.873018E-05,,0,
358,02/02/2022 19:24:32.661,6844.093,6844.093,1,1,0.00000,3.39805,0.00000,0.00000,0.00000,0.00000,0.00000,,7.71718E-05,,,
379,02/02/2022 19:31:32.682,7264.114,7264.114,1,1,0.00000,3.39907,0.00000,0.00000,0.00000,0.00000,0.00000,,4.781016E-05,,0,
400,02/02/2022 19:38:32.701,7684.133,7684.133,1,1,0.00000,3.39964,0.00000,0.00000,0.00000,0.00000,0.00000,,-5.270971E-05,,,
421,02/02/2022 19:45:32.726,8104.158,8104.158,1,1,0.00000,3.40019,0.00000,0.00000,0.00000,0.00000,0.00000,,-4.314518E-05,,,
442,02/02/2022 19:52:32.747,8524.179,8524.179,1,1,0.00000,3.39975,0.00000,0.00000,0.00000,0.00000,0.00000,,-6.871228E-05,,,
463,02/02/2022 19:59:32.772,8944.204,8944.204,1,1,0.00000,3.39995,0.00000,0.00000,0.00000,0.00000,0.00000,,-5.847903E-05,,,
484,02/02/2022 20:06:32.792,9364.223,9364.223,1,1,0.00000,3.39955,0.00000,0.00000,0.00000,0.00000,0.00000,,2.173189E-06,,,
505,02/02/2022 20:13:32.812,9784.244,9784.244,1,1,0.00000,3.39650,0.00000,0.00000,0.00000,0.00000,0.00000,,2.011188E-05,,,
526,02/02/2022 20:20:32.836,10204.268,10204.268,1,1,0.00000,3.40062,0.00000,0.00000,0.00000,0.00000,0.00000,,0.0001375223,,,
547,02/02/2022 20:27:32.857,10624.288,10624.288,1,1,0.00000,3.40188,0.00000,0.00000,0.00000,0.00000,0.00000,,-7.831837E-05,,,
568,02/02/2022 20:34:32.871,11044.303,11044.303,1,1,0.00000,3.40058,0.00000,0.00000,0.00000,0.00000,0.00000,,9.706507E-05,,,
589,02/02/2022 20:41:32.895,11464.327,11464.327,1,1,0.00000,3.40145,0.00000,0.00000,0.00000,0.00000,0.00000,,-1.750289E-05,,,
610,02/02/2022 20:48:32.920,11884.352,11884.352,1,1,0.00000,3.40233,0.00000,0.00000,0.00000,0.00000,0.00000,,9.681211E-06,,,
631,02/02/2022 20:55:32.939,12304.371,12304.371,1,1,0.00000,3.39500,0.00000,0.00000,0.00000,0.00000,0.00000,,1.434233E-05,,,
652,02/02/2022 21:02:32.961,12724.393,12724.393,1,1,0.00000,3.39292,0.00000,0.00000,0.00000,0.00000,0.00000,,0.0002643202,,0,
673,02/02/2022 21:09:32.983,13144.415,13144.415,1,1,0.00000,3.38660,0.00000,0.00000,0.00000,0.00000,0.00000,,2.323356E-05,,,
694,02/02/2022 21:16:33.005,13564.436,13564.436,1,1,0.00000,3.38357,0.00000,0.00000,0.00000,0.00000,0.00000,,-2.015139E-06,,0,
715,02/02/2022 21:23:33.027,13984.459,13984.459,1,1,0.00000,3.37685,0.00000,0.00000,0.00000,0.00000,0.00000,,-1.288183E-05,,,
736,02/02/2022 21:30:28.569,14400.001,14400.001,1,1,0.00000,3.38245,0.00000,0.00000,0.00000,0.00000,0.00000,,-0.0004788291,0,0,0
757,02/02/2022 21:30:28.974,14400.406,0.168,1,3,0.00000,3.73898,0.00000,0.00000,0.00000,0.00000,0.00000,,,,,
778,02/02/2022 21:30:30.127,14401.559,1.321,1,3,0.00000,3.51496,0.00000,0.00000,0.00000,0.00000,0.00000,,-0.08265328,,,
799,02/02/2022 21:33:35.189,14586.621,186.383,1,3,0.00000,3.38260,0.00000,0.00000,0.00000,0.00000,0.00000,,-0.0003823966,,,
820,02/02/2022 21:40:35.204,15006.636,606.398,1,3,0.00000,3.38528,0.00000,0.00000,0.00000,0.00000,0.00000,,-6.144249E-05,,0,
841,02/02/2022 21:47:35.225,15426.657,1026.419,1,3,0.00000,3.37529,0.00000,0.00000,0.00000,0.00000,0.00000,,2.963611E-06,,,
862,02/02/2022 21:54:35.241,15846.673,1446.436,1,3,0.00000,3.38271,0.00000,0.00000,0.00000,0.00000,0.00000,,4.271021E-05,,,
883,02/02/2022 22:01:35.253,16266.685,1866.447,1,3,0.00000,3.38099,0.00000,0.00000,0.00000,0.00000,0.00000,,-7.729162E-05,,,
904,02/02/2022 22:08:35.268,16686.699,2286.462,1,3,0.00000,3.38925,0.00000,0.00000,0.00000,0.00000,0.00000,,6.045066E-05,,,
925,02/02/2022 22:15:35.285,17106.717,2706.479,1,3,0.00000,3.39028,0.00000,0.00000,0.00000,0.00000,0.00000,,-2.663144E-05,,,
946,02/02/2022 22:22:35.300,17526.732,3126.495,1,3,0.00000,3.39459,0.00000,0.00000,0.00000,0.00000,0.00000,,-5.777114E-05,,,
967,02/02/2022 22:29:35.316,17946.747,3546.510,1,3,0.00000,3.40376,0.00000,0.00000,0.00000,0.00000,0.00000,,7.743877E-05,,,
988,02/02/2022 22:30:29.186,18000.618,0.154,1,5,0.00000,3.23021,0.00000,0.00000,0.00000,0.00000,0.00000,,,,,
1009,02/02/2022 22:32:23.005,18114.437,113.973,1,5,0.00000,3.40386,0.00000,0.00000,0.00000,0.00000,0.00000,,-6.653909E-05,,,
1030,02/02/2022 22:39:23.022,18534.454,533.990,1,5,0.00000,3.40552,0.00000,0.00000,0.00000,0.00000,0.00000,,-4.516244E-05,,,
1051,02/02/2022 22:46:23.035,18954.467,954.003,1,5,0.00000,3.40657,0.00000,0.00000,0.00000,0.00000,0.00000,,-1.797716E-05,,,
1072,02/02/2022 22:53:23.053,19374.485,1374.021,1,5,0.00000,3.40698,0.00000,0.00000,0.00000,0.00000,0.00000,,-5.761308E-05,,,
1093,02/02/2022 23:00:23.064,19794.496,1794.032,1,5,0.00000,3.40694,0.00000,0.00000,0.00000,0.00000,0.00000,,-5.666049E-05,,,
1114,02/02/2022 23:07:23.080,20214.512,2214.048,1,5,0.00000,3.40818,0.00000,0.00000,0.00000,0.00000,0.00000,,-2.517073E-05,,,
1135,02/02/2022 23:14:23.100,20634.532,2634.068,1,5,0.00000,3.40893,0.00000,0.00000,0.00000,0.00000,0.00000,,3.954942E-05,,,
1156,02/02/2022 23:21:23.116,21054.548,3054.084,1,5,0.00000,3.40930,0.00000,0.00000,0.00000,0.00000,0.00000,,-6.440542E-05,,,
1177,02/02/2022 23:28:23.134,21474.566,3474.102,1,5,0.00000,3.40960,0.00000,0.00000,0.00000,0.00000,0.00000,,7.428786E-06,,,
1198,02/02/2022 23:30:29.343,21600.775,0.079,2,3,0.00000,3.65201,0.00000,0.00000,0.00000,0.00000,0.00000,,,,,
1219,02/02/2022 23:30:36.549,21607.981,7.285,2,3,0.00000,3.41843,0.00000,0.00000,0.00000,0.00000,0.00000,,-0.002645944,,,
1240,02/02/2022 23:37:36.565,22027.997,427.301,2,3,0.00000,3.41094,0.00000,0.00000,0.00000,0.00000,0.00000,,7.301976E-05,,,
1261,02/02/2022 23:44:36.581,22448.012,847.316,2,3,0.00000,3.41160,0.00000,0.00000,0.00000,0.00000,0.00000,,6.440168E-06,,0,
1282,02/02/2022 23:51:36.598,22868.030,1267.334,2,3,0.00000,3.41129,0.00000,0.00000,0.00000,0.00000,0.00000,,-1.086531E-05,,,
1303,02/02/2022 23:58:36.615,23288.047,1687.351,2,3,0.00000,3.41201,0.00000,0.00000,0.00000,0.00000,0.00000,,5.623098E-05,,,
1324,02/03/2022 00:05:36.628,23708.060,2107.364,2,3,0.00000,3.41274,0.00000,0.00000,0.00000,0.00000,0.00000,,-3.674421E-06,,,
1345,02/03/2022 00:12:36.638,24128.070,2527.374,2,3,0.00000,3.41244,0.00000,0.00000,0.00000,0.00000,0.00000,,-5.428931E-05,,,
1366,02/03/2022 00:19:36.654,24548.086,2947.389,2,3,0.00000,3.41275,0.00000,0.00000,0.00000,0.00000,0.00000,,4.642953E-05,,,
1387,02/03/2022 00:26:36.669,24968.100,3367.404,2,3,0.00000,3.41330,0.00000,0.00000,0.00000,0.00000,0.00000,,1.975512E-07,,,
1408,02/03/2022 00:30:29.525,25200.957,0.025,2,5,0.00000,3.19763,0.00000,0.00000,0.00000,0.00000,0.00000,,,,,
1429,02/03/2022 00:31:30.584,25262.015,61.083,2,5,0.00000,3.41114,0.00000,0.00000,0.00000,0.00000,0.00000,,2.054481E-06,,,
1450,02/03/2022 00:38:30.599,25682.030,481.098,2,5,0.00000,3.41345,0.00000,0.00000,0.00000,0.00000,0.00000,,3.994716E-05,,,
1471,02/03/2022 00:45:30.614,26102.046,901.113,2,5,0.00000,3.41268,0.00000,0.00000,0.00000,0.00000,0.00000,,-3.986847E-05,,,
1492,02/03/2022 00:52:30.627,26522.058,1321.126,2,5,0.00000,3.41253,0.00000,0.00000,0.00000,0.00000,0.00000,,-1.762376E-05,,,
1513,02/03/2022 00:59:30.647,26942.078,1741.146,2,5,0.00000,3.41154,0.00000,0.00000,0.00000,0.00000,0.00000,,-5.761356E-05,,,
1534,02/03/2022 01:06:30.667,27362.098,2161.166,2,5,0.00000,3.41270,0.00000,0.00000,0.00000,0.00000,0.00000,,2.915855E-05,,,
1555,02/03/2022 01:13:30.684,27782.116,2581.184,2,5,0.00000,3.41280,0.00000,0.00000,0.00000,0.00000,0.00000,,4.958452E-05,,,
1576,02/03/2022 01:20:30.704,28202.136,3001.204,2,5,0.00000,3.41299,0.00000,0.00000,0.00000,0.00000,0.00000,,-5.492196E-06,,,
1597,02/03/2022 01:27:30.718,28622.150,3421.218,2,5,0.00000,3.41318,0.00000,0.00000,0.00000,0.00000,0.00000,,3.133395E-05,,,
1618,02/03/2022 01:30:29.749,28801.180,0.007,4,7,0.00000,1.94574,-0.00001,0.00000,0.00000,0.00000,0.00000,,,,,
1639,02/03/2022 01:30:30.052,28801.484,0.008,6,10,-0.00001,1.80295,-0.00001,0.00000,0.00000,0.00000,0.00000,,,,,
1641,02/03/2022 01:30:30.117,28801.548,0.073,6,10,0.00002,2.18757,0.00003,0.00000,0.00000,0.00000,0.00000,,-105.9987,0,0,0

File: Martin_0201_Channel_34_IV&Aux__Wb_1.CSV
Data_Point,Date_Time,Test_Time(s),Step_Time(s),Cycle_Index,Step_Index,Current(A),Voltage(V),Power(W),Charge_Capacity(Ah),Discharge_Capacity(Ah),Charge_Energy(Wh),Discharge_Energy(Wh),ACR(Ohm),dV/dt(V/s),Internal_Resistance(Ohm),dQ/dV(Ah/V),dV/dQ(V/Ah)
1,02/02/2022 17:30:48.598,20.002,20.001,1,1,0.00000,3.38513,0.00000,0.00000,0.00000,0.00000,0.00000,,-0.02266372,,,
10,02/02/2022 17:33:48.604,200.007,200.007,1,1,0.00000,3.39028,0.00000,0.00000,0.00000,0.00000,0.00000,,2.500977E-05,,,
19,02/02/2022 17:36:48.611,380.014,380.014,1,1,0.00000,3.38927,0.00000,0.00000,0.00000,0.00000,0.00000,,0.01869856,,0,0
28,02/02/2022 17:39:48.619,560.022,560.022,1,1,0.00000,3.38877,0.00000,0.00000,0.00000,0.00000,0.00000,,-0.01399898,,,
37,02/02/2022 17:42:48.629,740.032,740.032,1,1,0.00000,3.38272,0.00000,0.00000,0.00000,0.00000,0.00000,,-0.02070781,,0,0
46,02/02/2022 17:45:48.637,920.040,920.040,1,1,0.00000,3.37793,0.00000,0.00000,0.00000,0.00000,0.00000,,0.02604822,,,
55,02/02/2022 17:48:48.645,1100.048,1100.048,1,1,0.00000,3.37170,0.00000,0.00000,0.00000,0.00000,0.00000,,0.01751164,,0,0
64,02/02/2022 17:51:48.653,1280.056,1280.056,1,1,0.00000,3.36558,0.00000,0.00000,0.00000,0.00000,0.00000,,-0.02684915,,,
73,02/02/2022 17:54:48.665,1460.068,1460.068,1,1,0.00000,3.35692,0.00000,0.00000,0.00000,0.00000,0.00000,,-0.01443757,,0,
82,02/02/2022 17:57:48.677,1640.080,1640.080,1,1,0.00000,3.35380,0.00000,0.00000,0.00000,0.00000,0.00000,,-3.481313E-05,,,
91,02/02/2022 18:00:48.687,1820.090,1820.090,1,1,0.00000,3.34461,0.00000,0.00000,0.00000,0.00000,0.00000,,-0.02286598,,0,
100,02/02/2022 18:03:48.696,2000.100,2000.099,1,1,0.00000,3.33608,0.00000,0.00000,0.00000,0.00000,0.00000,,0.01357243,,,
109,02/02/2022 18:06:48.703,2180.106,2180.106,1,1,0.00000,3.32231,0.00000,0.00000,0.00000,0.00000,0.00000,,-0.02032216,,0,
118,02/02/2022 18:09:48.712,2360.115,2360.115,1,1,0.00000,3.31243,0.00000,0.00000,0.00000,0.00000,0.00000,,0.03293314,,,
127,02/02/2022 18:12:48.720,2540.123,2540.123,1,1,0.00000,3.30205,0.00000,0.00000,0.00000,0.00000,0.00000,,-0.02064463,,,
136,02/02/2022 18:15:48.730,2720.133,2720.133,1,1,0.00000,3.28954,0.00000,0.00000,0.00000,0.00000,0.00000,,-0.01974707,,,
145,02/02/2022 18:18:48.740,2900.143,2900.143,1,1,0.00000,3.27824,0.00000,0.00000,0.00000,0.00000,0.00000,,-0.01723331,,,
154,02/02/2022 18:21:48.748,3080.151,3080.151,1,1,0.00000,3.27048,0.00000,0.00000,0.00000,0.00000,0.00000,,-0.0001050714,,,
163,02/02/2022 18:24:48.757,3260.160,3260.160,1,1,0.00000,3.25834,0.00000,0.00000,0.00000,0.00000,0.00000,,-0.0146469,,,
172,02/02/2022 18:27:48.765,3440.169,3440.168,1,1,0.00000,3.25037,0.00000,0.00000,0.00000,0.00000,0.00000,,-0.01984782,,,
181,02/02/2022 18:30:48.773,3620.176,3620.176,1,1,0.00000,3.24280,0.00000,0.00000,0.00000,0.00000,0.00000,,-0.01413684,,,
190,02/02/2022 18:33:48.783,3800.187,3800.186,1,1,0.00000,3.23843,0.00000,0.00000,0.00000,0.00000,0.00000,,-0.0001281241,,,
199,02/02/2022 18:36:48.793,3980.196,3980.196,1,1,0.00000,3.23218,0.00000,0.00000,0.00000,0.00000,0.00000,,0.01731147,,,
208,02/02/2022 18:39:48.800,4160.204,4160.203,1,1,0.00000,3.22772,0.00000,0.00000,0.00000,0.00000,0.00000,,0.00157362,,,
217,02/02/2022 18:42:48.808,4340.211,4340.211,1,1,0.00000,3.22509,0.00000,0.00000,0.00000,0.00000,0.00000,,0.02020704,,,
226,02/02/2022 18:45:48.818,4520.221,4520.221,1,1,0.00000,3.22196,0.00000,0.00000,0.00000,0.00000,0.00000,,1.699039E-06,,,
235,02/02/2022 18:48:48.826,4700.229,4700.229,1,1,0.00000,3.22207,0.00000,0.00000,0.00000,0.00000,0.00000,,-2.513184E-05,,,
244,02/02/2022 18:51:48.831,4880.234,4880.234,1,1,0.00000,3.22165,0.00000,0.00000,0.00000,0.00000,0.00000,,0.009808515,,,
253,02/02/2022 18:54:48.839,5060.242,5060.242,1,1,0.00000,3.22076,0.00000,0.00000,0.00000,0.00000,0.00000,,-3.733965E-05,,,
262,02/02/2022 18:57:48.850,5240.253,5240.253,1,1,0.00000,3.22703,0.00000,0.00000,0.00000,0.00000,0.00000,,9.570027E-05,,,
271,02/02/2022 19:00:48.861,5420.264,5420.264,1,1,0.00000,3.22797,0.00000,0.00000,0.00000,0.00000,0.00000,,-0.01939086,,,
280,02/02/2022 19:03:48.870,5600.273,5600.273,1,1,0.00000,3.23067,0.00000,0.00000,0.00000,0.00000,0.00000,,-5.413126E-06,,,
289,02/02/2022 19:06:48.876,5780.279,5780.279,1,1,0.00000,3.23726,0.00000,0.00000,0.00000,0.00000,0.00000,,6.622738E-05,,,
298,02/02/2022 19:09:48.882,5960.285,5960.285,1,1,0.00000,3.24315,0.00000,0.00000,0.00000,0.00000,0.00000,,1.868819E-05,,,
307,02/02/2022 19:12:48.889,6140.293,6140.292,1,1,0.00000,3.24962,0.00000,0.00000,0.00000,0.00000,0.00000,,0.01841984,,,
316,02/02/2022 19:15:48.895,6320.298,6320.298,1,1,0.00000,3.26028,0.00000,0.00000,0.00000,0.00000,0.00000,,-0.02063742,,,
325,02/02/2022 19:18:48.904,6500.307,6500.307,1,1,0.00000,3.26720,0.00000,0.00000,0.00000,0.00000,0.00000,,-5.970343E-05,,,
334,02/02/2022 19:21:48.913,6680.316,6680.316,1,1,0.00000,3.27668,0.00000,0.00000,0.00000,0.00000,0.00000,,-0.02119,,,
343,02/02/2022 19:24:48.921,6860.324,6860.324,1,1,0.00000,3.28636,0.00000,0.00000,0.00000,0.00000,0.00000,,-5.852193E-05,,,
352,02/02/2022 19:27:48.929,7040.333,7040.332,1,1,0.00000,3.29567,0.00000,0.00000,0.00000,0.00000,0.00000,,-0.01360639,,,
361,02/02/2022 19:30:48.937,7220.340,7220.340,1,1,0.00000,3.31565,0.00000,0.00000,0.00000,0.00000,0.00000,,-0.01593864,,,
370,02/02/2022 19:33:48.947,7400.350,7400.350,1,1,0.00000,3.33161,0.00000,0.00000,0.00000,0.00000,0.00000,,0.0001370767,,0,
379,02/02/2022 19:36:48.955,7580.359,7580.358,1,1,0.00000,3.34858,0.00000,0.00000,0.00000,0.00000,0.00000,,0.01217275,,,
388,02/02/2022 19:39:48.964,7760.367,7760.367,1,1,0.00000,3.36491,0.00000,0.00000,0.00000,0.00000,0.00000,,-0.02787426,,0,
397,02/02/2022 19:42:48.973,7940.376,7940.376,1,1,0.00000,3.39111,0.00000,0.00000,0.00000,0.00000,0.00000,,-0.02026094,,,0
406,02/02/2022 19:45:48.981,8120.385,8120.384,1,1,0.00000,3.40535,0.00000,0.00000,0.00000,0.00000,0.00000,,-0.02125221,,0,
415,02/02/2022 19:48:48.991,8300.394,8300.394,1,1,0.00000,3.42626,0.00000,0.00000,0.00000,0.00000,0.00000,,0.0001636265,,,
424,02/02/2022 19:51:49.001,8480.404,8480.404,1,1,0.00000,3.44974,0.00000,0.00000,0.00000,0.00000,0.00000,,-0.01583413,,0,
433,02/02/2022 19:54:49.012,8660.415,8660.415,1,1,0.00000,3.47869,0.00000,0.00000,0.00000,0.00000,0.00000,,9.30926E-05,,,
442,02/02/2022 19:57:47.917,8839.320,8839.320,1,1,0.00000,3.50917,0.00000,0.00000,0.00000,0.00000,0.00000,,0.02030567,,0,
451,02/02/2022 20:00:47.391,9018.794,9018.794,1,1,0.00000,3.54231,0.00000,0.00000,0.00000,0.00000,0.00000,,0.01597976,,,
460,02/02/2022 20:03:47.163,9198.566,9198.566,1,1,0.00000,3.57416,0.00000,0.00000,0.00000,0.00000,0.00000,,0.01288463,,0,
469,02/02/2022 20:06:47.174,9378.577,9378.577,1,1,0.00000,3.60574,0.00000,0.00000,0.00000,0.00000,0.00000,,-0.01931981,,,
478,02/02/2022 20:09:47.184,9558.587,9558.587,1,1,0.00000,3.63958,0.00000,0.00000,0.00000,0.00000,0.00000,,-0.01852473,,0,
487,02/02/2022 20:12:36.564,9727.967,9727.967,1,1,0.00000,3.67697,0.00000,0.00000,0.00000,0.00000,0.00000,,0.01870765,,,
496,02/02/2022 20:15:35.473,9906.876,9906.876,1,1,0.00000,3.71795,0.00000,0.00000,0.00000,0.00000,0.00000,,-0.01928507,,,
505,02/02/2022 20:18:29.719,10081.122,10081.122,1,1,0.00000,3.75496,0.00000,0.00000,0.00000,0.00000,0.00000,,0.0003402889,,,
514,02/02/2022 20:21:25.933,10257.336,10257.336,1,1,0.00000,3.79702,0.00000,0.00000,0.00000,0.00000,0.00000,,-0.02157914,,,
523,02/02/2022 20:24:20.604,10432.007,10432.007,1,1,0.00000,3.83992,0.00000,0.00000,0.00000,0.00000,0.00000,,0.01590129,,,
532,02/02/2022 20:27:15.193,10606.596,10606.596,1,1,0.00000,3.88273,0.00000,0.00000,0.00000,0.00000,0.00000,,0.01351138,,,
541,02/02/2022 20:30:03.902,10775.305,10775.305,1,1,0.00000,3.92480,0.00000,0.00000,0.00000,0.00000,0.00000,,0.0008670203,,0,
550,02/02/2022 20:32:56.732,10948.135,10948.135,1,1,0.00000,3.96862,0.00000,0.00000,0.00000,0.00000,0.00000,,-0.02136163,,,
559,02/02/2022 20:35:56.011,11127.414,11127.414,1,1,0.00000,4.01563,0.00000,0.00000,0.00000,0.00000,0.00000,,0.01313763,,,
568,02/02/2022 20:38:48.339,11299.742,11299.742,1,1,0.00000,4.07136,0.00000,0.00000,0.00000,0.00000,0.00000,,0.0184194,,,
577,02/02/2022 20:41:47.083,11478.486,11478.486,1,1,0.00000,4.12715,0.00000,0.00000,0.00000,0.00000,0.00000,,0.02114429,,,
586,02/02/2022 20:44:45.004,11656.407,11656.407,1,1,0.00000,4.18058,0.00000,0.00000,0.00000,0.00000,0.00000,,0.01479003,,,
595,02/02/2022 20:47:37.507,11828.910,11828.910,1,1,0.00000,4.23167,0.00000,0.00000,0.00000,0.00000,0.00000,,0.0004213595,,,
604,02/02/2022 20:50:21.529,11992.932,11992.932,1,1,0.00000,4.28359,0.00000,0.00000,0.00000,0.00000,0.00000,,-0.02760206,,0,
613,02/02/2022 20:53:17.297,12168.700,12168.700,1,1,0.00000,4.33468,0.00000,0.00000,0.00000,0.00000,0.00000,,-0.01109897,,,
622,02/02/2022 20:56:11.762,12343.165,12343.165,1,1,0.00000,4.38394,0.00000,0.00000,0.00000,0.00000,0.00000,,0.0149228,,0,
631,02/02/2022 20:58:58.507,12509.910,12509.910,1,1,0.00000,4.43811,0.00000,0.00000,0.00000,0.00000,0.00000,,0.0003259594,,,
640,02/02/2022 21:01:43.090,12674.493,12674.493,1,1,0.00000,4.49563,0.00000,0.00000,0.00000,0.00000,0.00000,,0.0002126373,,,
649,02/02/2022 21:04:28.254,12839.657,12839.657,1,1,0.00000,4.55731,0.00000,0.00000,0.00000,0.00000,0.00000,,0.01246573,,0,
658,02/02/2022 21:07:22.134,13013.537,13013.537,1,1,0.00000,4.61226,0.00000,0.00000,0.00000,0.00000,0.00000,,0.01233187,,,
667,02/02/2022 21:10:14.255,13185.658,13185.658,1,1,0.00000,4.67230,0.00000,0.00000,0.00000,0.00000,0.00000,,-0.02754222,,,
676,02/02/2022 21:12:56.807,13348.210,13348.210,1,1,0.00000,4.73121,0.00000,0.00000,0.00000,0.00000,0.00000,,-0.0089508,,,
685,02/02/2022 21:15:33.412,13504.815,13504.815,1,1,0.00000,4.77923,0.00000,0.00000,0.00000,0.00000,0.00000,,0.02745901,,,
694,02/02/2022 21:18:25.232,13676.635,13676.635,1,1,0.00000,4.83656,0.00000,0.00000,0.00000,0.00000,0.00000,,0.0105294,,0,
703,02/02/2022 21:21:17.930,13849.333,13849.333,1,1,0.00000,4.89935,0.00000,0.00000,0.00000,0.00000,0.00000,,0.0005111141,,,
712,02/02/2022 21:24:03.117,14014.521,14014.520,1,1,0.00000,4.95861,0.00000,0.00000,0.00000,0.00000,0.00000,,0.0001190515,,,
718,02/02/2022 21:25:53.865,14125.269,14125.268,1,1,0.00000,5.00036,0.00000,0.00000,0.00000,0.00000,0.00000,,-0.01589755,0,0,0