Folder: Thickness_Effect/Data/Data_220201_NMC (part 2)

File: Martin_0201_Channel_35_IV&Aux__Wb_1.CSV
Data_Point,Date_Time,Test_Time(s),Step_Time(s),Cycle_Index,Step_Index,Current(A),Voltage(V),Power(W),Charge_Capacity(Ah),Discharge_Capacity(Ah),Charge_Energy(Wh),Discharge_Energy(Wh),ACR(Ohm),dV/dt(V/s),Internal_Resistance(Ohm),dQ/dV(Ah/V),dV/dQ(V/Ah)
1,02/03/2022 11:08:55.527,20.001,20.001,1,1,0.00000,1.25480,0.00000,0.00000,0.00000,0.00000,0.00000,,0.01824176,,,
12,02/03/2022 11:12:09.409,213.883,213.883,1,1,0.00000,1.33817,0.00000,0.00000,0.00000,0.00000,0.00000,,-0.02466606,,,
23,02/03/2022 11:15:16.481,400.955,400.955,1,1,0.00000,1.41554,0.00000,0.00000,0.00000,0.00000,0.00000,,0.01763664,,,
34,02/03/2022 11:18:29.549,594.023,594.023,1,1,0.00000,1.50395,0.00000,0.00000,0.00000,0.00000,0.00000,,0.0001892985,,,
45,02/03/2022 11:21:41.547,786.021,786.021,1,1,0.00000,1.58152,0.00000,0.00000,0.00000,0.00000,0.00000,,-0.02652223,,,
56,02/03/2022 11:24:48.601,973.076,973.076,1,1,0.00000,1.67307,0.00000,0.00000,0.00000,0.00000,0.00000,,0.03801936,,0,
67,02/03/2022 11:27:56.432,1160.906,1160.906,1,1,0.00000,1.75746,0.00000,0.00000,0.00000,0.00000,0.00000,,-0.01304301,,,
78,02/03/2022 11:31:10.743,1355.217,1355.217,1,1,0.00000,1.83993,0.00000,0.00000,0.00000,0.00000,0.00000,,0.01031405,,,
89,02/03/2022 11:34:10.343,1534.817,1534.817,1,1,0.00000,1.92627,0.00000,0.00000,0.00000,0.00000,0.00000,,-0.01128776,,,
100,02/03/2022 11:37:32.411,1736.885,1736.885,1,1,0.00000,2.01382,0.00000,0.00000,0.00000,0.00000,0.00000,,-0.01708056,,,
111,02/03/2022 11:40:35.281,1919.755,1919.755,1,1,0.00000,2.09993,0.00000,0.00000,0.00000,0.00000,0.00000,,0.01751409,,,
122,02/03/2022 11:43:35.081,2099.555,2099.555,1,1,0.00000,2.18208,0.00000,0.00000,0.00000,0.00000,0.00000,,-0.02167985,,,
133,02/03/2022 11:46:50.610,2295.084,2295.084,1,1,0.00000,2.26964,0.00000,0.00000,0.00000,0.00000,0.00000,,0.001496826,,,
144,02/03/2022 11:49:54.384,2478.858,2478.858,1,1,0.00000,2.34910,0.00000,0.00000,0.00000,0.00000,0.00000,,-0.02842525,,,
155,02/03/2022 11:53:03.133,2667.607,2667.607,1,1,0.00000,2.43236,0.00000,0.00000,0.00000,0.00000,0.00000,,0.0003529279,,0,
166,02/03/2022 11:56:07.632,2852.106,2852.106,1,1,0.00000,2.52005,0.00000,0.00000,0.00000,0.00000,0.00000,,0.0003992624,,,
177,02/03/2022 11:59:25.706,3050.180,3050.180,1,1,0.00000,2.60603,0.00000,0.00000,0.00000,0.00000,0.00000,,0.01592144,,,
188,02/03/2022 12:02:43.974,3248.448,3248.448,1,1,0.00000,2.69012,0.00000,0.00000,0.00000,0.00000,0.00000,,-0.02173982,,,
199,02/03/2022 12:05:49.538,3434.012,3434.012,1,1,0.00000,2.77822,0.00000,0.00000,0.00000,0.00000,0.00000,,0.003991585,,,
210,02/03/2022 12:08:47.348,3611.822,3611.822,1,1,0.00000,2.85275,0.00000,0.00000,0.00000,0.00000,0.00000,,0.01177325,,,
221,02/03/2022 12:12:00.289,3804.763,3804.763,1,1,0.00000,2.93901,0.00000,0.00000,0.00000,0.00000,0.00000,,0.02186328,,,
232,02/03/2022 12:15:23.873,4008.347,4008.347,1,1,0.00000,3.02450,0.00000,0.00000,0.00000,0.00000,0.00000,,-0.03268697,,0,
243,02/03/2022 12:18:29.972,4194.446,4194.446,1,1,0.00000,3.10654,0.00000,0.00000,0.00000,0.00000,0.00000,,-0.03293665,,,
254,02/03/2022 12:21:43.055,4387.529,4387.529,1,1,0.00000,3.19213,0.00000,0.00000,0.00000,0.00000,0.00000,,0.03120845,,,
265,02/03/2022 12:24:47.223,4571.698,4571.698,1,1,0.00000,3.27428,0.00000,0.00000,0.00000,0.00000,0.00000,,-0.02632971,,,
276,02/03/2022 12:27:57.504,4761.978,4761.978,1,1,0.00000,3.35053,0.00000,0.00000,0.00000,0.00000,0.00000,,-0.02468573,,,
287,02/03/2022 12:31:03.000,4947.474,4947.474,1,1,0.00000,3.43358,0.00000,0.00000,0.00000,0.00000,0.00000,,0.0006264591,,,
298,02/03/2022 12:34:03.021,5127.495,5127.495,1,1,0.00000,3.50935,0.00000,0.00000,0.00000,0.00000,0.00000,,-0.02388777,,,
309,02/03/2022 12:37:15.722,5320.196,5320.196,1,1,0.00000,3.58650,0.00000,0.00000,0.00000,0.00000,0.00000,,0.0003058518,,,
320,02/03/2022 12:40:08.573,5493.048,5493.048,1,1,0.00000,3.65986,0.00000,0.00000,0.00000,0.00000,0.00000,,0.01366907,,,
331,02/03/2022 12:43:11.054,5675.528,5675.528,1,1,0.00000,3.73590,0.00000,0.00000,0.00000,0.00000,0.00000,,-0.02566413,,,
342,02/03/2022 12:46:16.713,5861.188,5861.188,1,1,0.00000,3.81883,0.00000,0.00000,0.00000,0.00000,0.00000,,0.02105302,,,
353,02/03/2022 12:49:20.605,6045.079,6045.079,1,1,0.00000,3.89052,0.00000,0.00000,0.00000,0.00000,0.00000,,-0.01799441,,,
364,02/03/2022 12:52:27.948,6232.422,6232.422,1,1,0.00000,3.97321,0.00000,0.00000,0.00000,0.00000,0.00000,,-0.01120567,,,
375,02/03/2022 12:55:29.346,6413.820,6413.820,1,1,0.00000,4.04684,0.00000,0.00000,0.00000,0.00000,0.00000,,0.001635808,,0,
386,02/03/2022 12:58:43.812,6608.286,6608.286,1,1,0.00000,4.11919,0.00000,0.00000,0.00000,0.00000,0.00000,,0.01137191,,,
397,02/03/2022 13:02:02.791,6807.265,6807.265,1,1,0.00000,4.20458,0.00000,0.00000,0.00000,0.00000,0.00000,,0.0008375004,,,
408,02/03/2022 13:05:12.979,6997.453,6997.453,1,1,0.00000,4.27905,0.00000,0.00000,0.00000,0.00000,0.00000,,0.01564513,,,
419,02/03/2022 13:08:43.121,7207.595,7207.595,1,1,0.00000,4.36711,0.00000,0.00000,0.00000,0.00000,0.00000,,0.01893825,,,
430,02/03/2022 13:11:56.774,7401.248,7401.248,1,1,0.00000,4.44086,0.00000,0.00000,0.00000,0.00000,0.00000,,0.0006484847,,,
441,02/03/2022 13:15:02.753,7587.227,7587.227,1,1,0.00000,4.51391,0.00000,0.00000,0.00000,0.00000,0.00000,,-0.02275361,,,
452,02/03/2022 13:18:15.917,7780.392,7780.392,1,1,0.00000,4.59411,0.00000,0.00000,0.00000,0.00000,0.00000,,0.0149735,,,
463,02/03/2022 13:21:31.828,7976.302,7976.302,1,1,0.00000,4.67210,0.00000,0.00000,0.00000,0.00000,0.00000,,-0.01398263,,,
474,02/03/2022 13:24:39.325,8163.799,8163.799,1,1,0.00000,4.74173,0.00000,0.00000,0.00000,0.00000,0.00000,,0.01324893,,,
485,02/03/2022 13:27:35.481,8339.955,8339.955,1,1,0.00000,4.81056,0.00000,0.00000,0.00000,0.00000,0.00000,,-0.01454821,,,
496,02/03/2022 13:30:56.208,8540.682,8540.682,1,1,0.00000,4.88461,0.00000,0.00000,0.00000,0.00000,0.00000,,-0.02509869,,,
507,02/03/2022 13:34:08.032,8732.507,8732.507,1,1,0.00000,4.95379,0.00000,0.00000,0.00000,0.00000,0.00000,,-0.01120908,,,
518,02/03/2022 13:37:30.664,8935.139,8935.139,1,1,0.00000,5.03161,0.00000,0.00000,0.00000,0.00000,0.00000,,-0.01711978,,,
529,02/03/2022 13:41:06.437,9150.911,9150.911,1,1,0.00000,5.11043,0.00000,0.00000,0.00000,0.00000,0.00000,,0.0145025,,,
540,02/03/2022 13:44:32.286,9356.760,9356.760,1,1,0.00000,5.18109,0.00000,0.00000,0.00000,0.00000,0.00000,,0.01370857,,,
551,02/03/2022 13:47:46.760,9551.235,9551.235,1,1,0.00000,5.25766,0.00000,0.00000,0.00000,0.00000,0.00000,,-0.01934271,,,
562,02/03/2022 13:51:02.581,9747.056,9747.056,1,1,0.00000,5.32104,0.00000,0.00000,0.00000,0.00000,0.00000,,0.01456574,,,
573,02/03/2022 13:54:24.555,9949.029,9949.029,1,1,0.00000,5.39140,0.00000,0.00000,0.00000,0.00000,0.00000,,-0.03050868,,,
584,02/03/2022 13:57:32.156,10136.630,10136.630,1,1,0.00000,5.45921,0.00000,0.00000,0.00000,0.00000,0.00000,,-0.02500619,,,
595,02/03/2022 14:00:55.615,10340.089,10340.089,1,1,0.00000,5.52827,0.00000,0.00000,0.00000,0.00000,0.00000,,0.02042217,,,
606,02/03/2022 14:04:15.630,10540.104,10540.104,1,1,0.00000,5.58894,0.00000,0.00000,0.00000,0.00000,0.00000,,-0.0100425,,0,
617,02/03/2022 14:07:42.025,10746.499,10746.499,1,1,0.00000,5.65846,0.00000,0.00000,0.00000,0.00000,0.00000,,0.02261838,,,
628,02/03/2022 14:11:02.135,10946.609,10946.609,1,1,0.00000,5.72491,0.00000,0.00000,0.00000,0.00000,0.00000,,-0.01765125,,,
639,02/03/2022 14:14:31.564,11156.039,11156.039,1,1,0.00000,5.79526,0.00000,0.00000,0.00000,0.00000,0.00000,,-0.01184482,,,
650,02/03/2022 14:18:03.445,11367.920,11367.920,1,1,0.00000,5.85967,0.00000,0.00000,0.00000,0.00000,0.00000,,0.02232439,,,
661,02/03/2022 14:21:23.993,11568.467,11568.467,1,1,0.00000,5.92533,0.00000,0.00000,0.00000,0.00000,0.00000,,-0.01564131,,,
672,02/03/2022 14:24:57.950,11782.424,11782.424,1,1,0.00000,5.99216,0.00000,0.00000,0.00000,0.00000,0.00000,,0.01666391,,,
683,02/03/2022 14:28:26.221,11990.695,11990.695,1,1,0.00000,6.05670,0.00000,0.00000,0.00000,0.00000,0.00000,,-0.01199071,,,
694,02/03/2022 14:31:58.123,12202.597,12202.597,1,1,0.00000,6.11640,0.00000,0.00000,0.00000,0.00000,0.00000,,-0.01941943,,,
705,02/03/2022 14:35:10.275,12394.749,12394.749,1,1,0.00000,6.17777,0.00000,0.00000,0.00000,0.00000,0.00000,,-0.0116437,,,
716,02/03/2022 14:38:40.361,12604.836,12604.836,1,1,0.00000,6.24293,0.00000,0.00000,0.00000,0.00000,0.00000,,0.01373449,,,
727,02/03/2022 14:42:07.837,12812.311,12812.311,1,1,0.00000,6.30616,0.00000,0.00000,0.00000,0.00000,0.00000,,-0.03256902,,,
738,02/03/2022 14:45:40.819,13025.293,13025.293,1,1,0.00000,6.36027,0.00000,0.00000,0.00000,0.00000,0.00000,,-0.0176762,,,
749,02/03/2022 14:48:52.227,13216.701,13216.701,1,1,0.00000,6.41511,0.00000,0.00000,0.00000,0.00000,0.00000,,-0.02299552,,,
760,02/03/2022 14:52:13.856,13418.330,13418.330,1,1,0.00000,6.46774,0.00000,0.00000,0.00000,0.00000,0.00000,,0.01189342,,,
771,02/03/2022 14:55:32.629,13617.104,13617.104,1,1,0.00000,6.52540,0.00000,0.00000,0.00000,0.00000,0.00000,,0.01439446,,,
782,02/03/2022 14:59:07.840,13832.314,13832.314,1,1,0.00000,6.58228,0.00000,0.00000,0.00000,0.00000,0.00000,,-0.01109281,,,
793,02/03/2022 15:02:46.701,14051.175,14051.175,1,1,0.00000,6.63366,0.00000,0.00000,0.00000,0.00000,0.00000,,0.0002176308,,0,
804,02/03/2022 15:06:26.712,14271.186,14271.186,1,1,0.00000,6.67845,0.00000,0.00000,0.00000,0.00000,0.00000,,0.01501375,,,
815,02/03/2022 15:08:35.670,14400.144,0.063,1,2,0.00000,7.10833,0.00000,0.00000,0.00000,0.00000,0.00000,,,,,
822,02/03/2022 15:08:35.856,14400.330,0.124,1,3,0.00000,-7.34459,0.00000,0.00000,0.00000,0.00000,0.00000,,0.337108,0,0,0