Folder: Thickness_Effect/Data/XRD

Note: Data/XRD/mp-25411_xrd_Cu.json
{"meta": ["amplitude", "hkl", "two_theta", "d_spacing"], "created_at": "2020-09-03T17:49:28.852961", "wavelength": {"element": "Cu", "in_angstroms": 1.54184}, "pattern": [[99.99999999999999, [0, 0, 0, 3], 18.482014887578867, 4.800618085055913], [43.420826956244625, [1, 0, -1, 1], 36.2432659742808, 2.478561189111544], [5.8454087403400585, [0, 0, 0, 6], 37.46803504924574, 2.4003090425279563], [16.02482288022628, [1, 0, -1, 2], 37.87781920795031, 2.3752785376103116], [73.60694629014696, [1, 0, -1, 4], 43.89986218060758, 2.0624071872780787], [15.216992784295806, [1, 0, -1, 5], 48.0119196757994, 1.894936070528884], [2.330611509922872, [0, 0, 0, 9], 57.601214874003915, 1.6002060283519706], [14.355217851953139, [1, 0, -1, 7], 57.89734158557427, 1.5927247336166304], [20.15265741382752, [1, 0, -1, 8], 63.546166552937024, 1.4640784867630923], [20.38157677962788, [2, -1, -1, 0], 64.10428249990603, 1.4526726313354936], [14.799960442113129, [2, -1, -1, 3], 67.34646538853569, 1.390408656219411], [4.32518868538005, [2, 0, -2, 1], 75.92164221337346, 1.2532788405784065], [2.9091428263952808, [1, 0, -1, 10], 76.1624766269054, 1.249914560709676], [5.285897335337212, [2, -1, -1, 6], 76.6777646141756, 1.2427950360717046], [2.514987992889028, [2, 0, -2, 2], 76.93499492193106, 1.239280594555772], [2.9895676563683793, [0, 0, 0, 12], 79.93464683033648, 1.2001545212639781], [9.343478784524105, [2, 0, -2, 4], 80.95052190670414, 1.1876392688051558], [5.1069755789951845, [1, 0, -1, 11], 83.17578791672035, 1.1614295553596736], [2.78946426840839, [2, 0, -2, 5], 83.93189461827625, 1.1528830513125077], [3.9112946023776165, [2, -1, -1, 9], 91.57334256139097, 1.0755796494041463], [3.5990544015411583, [2, 0, -2, 7], 91.82389318840362, 1.073299056552612], [5.993964505726279, [2, 0, -2, 8], 96.76450977381552, 1.0312035936390394], [1.4773116118122285, [1, 0, -1, 13], 98.98945285998711, 1.0139065780314853], [1.2323295513603993, [0, 0, 0, 15], 106.82322014525604, 0.9601236170111824], [1.7219477639948784, [1, 0, -1, 14], 108.11848156231633, 0.9521947396844544], [4.467048094618808, [3, -1, -2, 1], 108.66394102777323, 0.9489308827504661], [1.5557399036014286, [2, 0, -2, 10], 108.91081788949393, 0.947468035264442], [2.7865337082925477, [3, -1, -2, 2], 109.7069262042331, 0.9428110293864579], [10.15305602164304, [2, -1, -1, 12], 112.86082940144664, 0.9252355123806233], [10.963267269152242, [3, -1, -2, 4], 113.95243562412654, 0.9194646347144145], [3.3449944858624083, [2, 0, -2, 11], 116.38763616308604, 0.9071399095681068], [3.849854439825889, [3, -1, -2, 5], 117.22944241460524, 0.9030501069636692], [6.453885991088582, [3, -1, -2, 7], 126.5192631771337, 0.8632394989865105], [5.515961414043881, [1, 0, -1, 16], 130.90663058111633, 0.8475158780917215], [12.751483045424035, [3, -1, -2, 8], 132.92608720841264, 0.8408788626121751], [6.701101557237737, [3, 0, -3, 0], 133.6139901661674, 0.8387009347459492], [1.722217936243081, [2, 0, -2, 13], 136.0147078381551, 0.8314208958406459], [6.7493942527560105,

Note: README.md
# Thickness_Effect

My battery data analysis project

File: NMC_3_GM_4tt35tt_05ts_6ks_bg_subtracted.xye
'Id: "" Comment: "" Operator: "Lab Manager" Anode: "Mo" Scantype: "Coupled TwoTheta/Theta" TimePerStep: "1536" X: "9999" Y: "9999" Z: "9999"
4.0000 0.000 0.268
4.1021 2.323 0.270
4.2041 7.172 0.275
4.3062 11.123 0.278
4.4083 15.837 0.283
4.5104 21.692 0.289
4.6124 26.483 0.293
4.7145 32.813 0.299
4.8166 40.103 0.306
4.9187 44.730 0.310
5.0207 53.322 0.318
5.1228 60.537 0.324
5.2249 64.414 0.327
5.3270 71.670 0.333
5.4290 75.835 0.337
5.5311 78.933 0.339
5.6332 81.861 0.340
5.7353 82.745 0.340
5.8373 82.603 0.339
5.9394 82.682 0.338
6.0415 79.039 0.334
6.1436 77.798 0.331
6.2456 75.288 0.328
6.3477 68.929 0.320
6.4498 66.409 0.317
6.5519 62.969 0.312
6.6539 58.363 0.306
6.7560 54.850 0.301
6.8581 50.746 0.295
6.9601 47.129 0.290
7.0622 44.857 0.286
7.1643 39.742 0.278
7.2664 37.580 0.274
7.3684 34.355 0.269
7.4705 30.497 0.263
7.5726 29.160 0.259
7.6747 25.648 0.253
7.7767 23.497 0.249
7.8788 20.775 0.243
7.9809 18.001 0.238
8.0830 16.225 0.233
8.1850 14.892 0.230
8.2871 15.856 0.229
8.3892 27.993 0.244
8.4913 86.846 0.311
8.5933 10.580 0.215
8.6954 5.476 0.205
8.7975 3.517 0.199
8.8996 2.292 0.195
9.0016 1.890 0.191
9.1037 0.609 0.187
9.2058 0.506 0.184
9.3079 0.667 0.181
9.4099 -0.158 0.177
9.5120 -0.001 0.174
9.6141 0.483 0.172
9.7162 -0.398 0.168
9.8182 -0.215 0.166
9.9203 -0.177 0.164
10.0224 -0.007 0.162
10.1244 0.197 0.161
10.2265 -0.631 0.157
10.3286 -0.102 0.157
10.4307 0.037 0.157
10.5327 -0.207 0.155
10.6348 0.106 0.156
10.7369 -0.001 0.155
10.8390 -0.036 0.155
10.9410 -0.127 0.154
11.0431 -0.107 0.155
11.1452 -0.043 0.155
11.2473 0.240 0.156
11.3493 0.056 0.155
11.4514 0.598 0.157
11.5535 0.929 0.158
11.6556 0.893 0.158
11.7576 1.537 0.159
11.8597 1.792 0.159
11.9618 1.589 0.159
12.0639 2.382 0.161
12.1659 2.211 0.160
12.2680 2.786 0.161
12.3701 2.991 0.162
12.4722 3.073 0.162
12.5742 3.288 0.162
12.6763 3.681 0.162
12.7784 3.555 0.162
12.8804 3.955 0.162
12.9825 3.882 0.162
13.0846 3.304 0.160
13.1867 3.678 0.161
13.2887 3.401 0.160
13.3908 3.494 0.160
13.4929 3.465 0.159
13.5950 2.939 0.157
13.6970 2.987 0.157
13.7991 2.797 0.156
13.9012 2.107 0.154
14.0033 2.222 0.153
14.1053 2.095 0.152
14.2074 1.568 0.151
14.3095 1.149 0.149
14.4116 1.047 0.148
14.5136 0.591 0.146
14.6157 1.087 0.146
14.7178 0.547 0.144
14.8199 0.403 0.143
14.9219 0.261 0.141
15.0240 -0.059 0.139
15.1261 0.141 0.139
15.2282 0.220 0.138
15.3302 -0.265 0.136
15.4323 0.069 0.135
15.5344 0.106 0.134
15.6364 0.028 0.133
15.7385 -0.035 0.133
15.8406 0.182 0.133
15.9427 0.666 0.135
16.0447 1.402 0.137
16.1468 0.981 0.136
16.2489 0.684 0.135
16.3510 1.855 0.138
16.4530 12.589 0.161
16.5551 35.849 0.203
16.6572 16.115 0.168
16.7593 1.311 0.136
16.8613 1.028 0.135
16.9634 0.062 0.133
17.0655 3.651 0.141
17.1676 5.882 0.146
17.2696 20.153 0.174
17.3717 9.922 0.154
17.4738 0.364 0.131
17.5759 -0.059 0.130
17.6779 0.297 0.130
17.7800 0.088 0.129
17.8821 0.157 0.129
17.9842 0.179 0.129
18.0862 -0.159 0.127
18.1883 0.204 0.128
18.2904 0.102 0.127
18.3925 -0.172 0.126
18.4945 0.161 0.126
18.5966 0.227 0.126
18.6987 0.089 0.125
18.8007 -0.007 0.124
18.9028 -0.309 0.122
19.0049 -0.145 0.122
19.1070 0.166 0.123
19.2090 1.592 0.126
19.3111 2.871 0.129
19.4132 5.208 0.134
19.5153 5.096 0.134
19.6173 4.070 0.131
19.7194 4.350 0.131
19.8215 14.063 0.153
19.9236 86.802 0.265
20.0256 43.005 0.204
20.1277 8.837 0.139
20.2298 1.275 0.119
20.3319 0.028 0.115
20.4339 0.207 0.115
20.5360 -0.031 0.113
20.6381 -0.114 0.112
20.7402 -0.111 0.111
20.8422 0.031 0.111
20.9443 -0.147 0.110
21.0464 0.438 0.112
21.1485 0.473 0.112
21.2505 0.878 0.113
21.3526 0.643 0.112
21.4547 0.368 0.110
21.5567 0.722 0.111
21.6588 5.424 0.124
21.7609 10.530 0.136
21.8630 8.546 0.131
21.9650 0.763 0.109
22.0671 0.052 0.106
22.1692 0.038 0.105
22.2713 0.126 0.105
22.3733 0.006 0.105
22.4754 0.196 0.105
22.5775 0.135 0.104
22.6796 0.044 0.103
22.7816 0.038 0.103
22.8837 -0.121 0.102
22.9858 0.114 0.102
23.0879 0.161 0.102
23.1899 -0.042 0.101
23.2920 -0.036 0.100
23.3941 0.002 0.100
23.4962 -0.079 0.099
23.5982 0.189 0.100
23.7003 -0.116 0.099
23.8024 0.086 0.099
23.9045 -0.087 0.098
24.0065 -0.125 0.098
24.1086 0.154 0.098
24.2107 0.169 0.098
24.3127 -0.061 0.097
24.4148 0.079 0.098
24.5169 0.052 0.097
24.6190 -0.026 0.097
24.7210 0.329 0.098
24.8231 0.050 0.097
24.9252 0.202 0.097
25.0273 -0.033 0.096
25.1293 -0.198 0.096
25.2314 0.485 0.099
25.3335 0.624 0.100
25.4356 0.404 0.100
25.5376 0.651 0.101
25.6397 0.011 0.100
25.7418 0.687 0.102
25.8439 5.037 0.116
25.9459 14.479 0.140
26.0480 5.815 0.118
26.1501 3.944 0.113
26.2522 -0.179 0.101
26.3542 0.260 0.103
26.4563 1.431 0.107
26.5584 3.181 0.112
26.6605 6.142 0.121
26.7625 8.674 0.128
26.8646 12.228 0.137
26.9667 14.227 0.141
27.0688 14.978 0.143
27.1708 16.035 0.146
27.2729 13.700 0.140
27.3750 11.303 0.134
27.4770 8.726 0.128
27.5791 5.824 0.120
27.6812 4.128 0.115
27.7833 3.400 0.113
27.8853 2.635 0.111
27.9874 2.733 0.111
28.0895 2.513 0.110
28.1916 6.074 0.119
28.2936 23.396 0.159
28.3957 15.422 0.142
28.4978 25.591 0.163
28.5999 9.311 0.126
28.7019 4.721 0.113
28.8040 0.139 0.098
28.9061 0.006 0.097
29.0082 0.063 0.097
29.1102 0.715 0.099
29.2123 0.765 0.099
29.3144 1.047 0.100
29.4165 0.836 0.099
29.5185 0.954 0.100
29.6206 1.401 0.101
29.7227 7.839 0.120
29.8248 10.500 0.127
29.9268 5.885 0.114
30.0289 3.231 0.106
30.1310 0.313 0.096
30.2330 0.104 0.094
30.3351 0.020 0.094
30.4372 -0.214 0.093
30.5393 0.197 0.095
30.6413 0.315 0.095
30.7434 0.627 0.097
30.8455 1.387 0.099
30.9476 1.984 0.101
31.0496 2.747 0.103
31.1517 3.496 0.106
31.2538 3.618 0.106
31.3559 4.324 0.108
31.4579 3.805 0.106
31.5600 3.081 0.103
31.6621 2.482 0.101
31.7642 1.449 0.097
31.8662 0.721 0.094
31.9683 0.190 0.092
32.0704 -0.118 0.090
32.1725 -0.090 0.090
32.2745 0.125 0.091
32.3766 0.155 0.091
32.4787 0.078 0.091
32.5808 0.124 0.091
32.6828 0.380 0.092
32.7849 0.582 0.093
32.8870 0.859 0.094
32.9890 1.229 0.095
33.0911 3.924 0.104
33.1932 3.876 0.104
33.2953 5.201 0.108
33.3973 6.290 0.111
33.4994 7.358 0.114
33.6015 3.268 0.101
33.7036 2.825 0.099
33.8056 0.507 0.091
33.9077 0.169 0.089
34.0098 0.075 0.089
34.1119 0.002 0.089
34.2139 0.130 0.090
34.3160 0.062 0.090
34.4181 -0.143 0.090
34.5202 0.094 0.092
34.6171 0.000 0.093

File: NMC_3_GM_4tt35tt_05ts_6ks_exported.xye
'Id: "" Comment: "" Operator: "Lab Manager" Anode: "Mo" Scantype: "Coupled TwoTheta/Theta" TimePerStep: "1536" X: "9999" Y: "9999" Z: "9999"
4.0000 110.371 0.268
4.1021 111.796 0.270
4.2041 115.868 0.275
4.3062 119.026 0.278
4.4083 122.932 0.283
4.5104 127.962 0.289
4.6124 131.913 0.293
4.7145 137.387 0.299
4.8166 143.805 0.306
4.9187 147.544 0.310
5.0207 155.234 0.318
5.1228 161.530 0.324
5.2249 164.471 0.327
5.3270 170.777 0.333
5.4290 173.976 0.337
5.5311 176.092 0.339
5.6332 178.022 0.340
5.7353 177.893 0.340
5.8373 176.721 0.339
5.9394 175.756 0.338
6.0415 171.052 0.334
6.1436 168.734 0.331
6.2456 165.132 0.328
6.3477 157.665 0.320
6.4498 154.021 0.317
6.5519 149.442 0.312
6.6539 143.681 0.306
6.7560 138.997 0.301
6.8581 133.706 0.295
6.9601 128.886 0.290
7.0622 125.396 0.286
7.1643 119.047 0.278
7.2664 115.635 0.274
7.3684 111.144 0.269
7.4705 106.005 0.263
7.5726 103.371 0.259
7.6747 98.546 0.253
7.7767 95.066 0.249
7.8788 90.999 0.243
7.9809 86.865 0.238
8.0830 83.714 0.233
8.1850 80.989 0.230
8.2871 80.546 0.229
8.3892 91.260 0.244
8.4913 148.674 0.311
8.5933 70.952 0.215
8.6954 64.379 0.205
8.7975 60.933 0.199
8.8996 58.206 0.195
9.0016 56.286 0.191
9.1037 53.472 0.187
9.2058 51.820 0.184
9.3079 50.416 0.181
9.4099 48.010 0.177
9.5120 46.570 0.174
9.6141 45.615 0.172
9.7162 43.371 0.168
9.8182 42.289 0.166
9.9203 41.136 0.164
10.0224 40.246 0.162
10.1244 39.616 0.161
10.2265 38.067 0.157
10.3286 38.063 0.157
10.4307 37.716 0.157
10.5327 37.100 0.155
10.6348 37.215 0.156
10.7369 36.920 0.155
10.8390 36.786 0.155
10.9410 36.658 0.154
11.0431 36.680 0.155
11.1452 36.794 0.155
11.2473 37.186 0.156
11.3493 37.096 0.155
11.4514 37.717 0.157
11.5535 38.110 0.158
11.6556 38.120 0.158
11.7576 38.796 0.159
11.8597 39.066 0.159
11.9618 38.863 0.159
12.0639 39.640 0.161
12.1659 39.437 0.160
12.2680 39.964 0.161
12.3701 40.105 0.162
12.4722 40.109 0.162
12.5742 40.229 0.162
12.6763 40.510 0.162
12.7784 40.258 0.162
12.8804 40.516 0.162
12.9825 40.285 0.162
13.0846 39.533 0.160
13.1867 39.717 0.161
13.2887 39.235 0.160
13.3908 39.107 0.160
13.4929 38.841 0.159
13.5950 38.063 0.157
13.6970 37.842 0.157
13.7991 37.368 0.156
13.9012 36.378 0.154
14.0033 36.178 0.153
14.1053 35.719 0.152
14.2074 34.846 0.151
14.3095 34.064 0.149
14.4116 33.583 0.148
14.5136 32.732 0.146
14.6157 32.818 0.146
14.7178 31.853 0.144
14.8199 31.267 0.143
14.9219 30.668 0.141
15.0240 29.875 0.139
15.1261 29.585 0.139
15.2282 29.160 0.138
15.3302 28.219 0.136
15.4323 28.118 0.135
15.5344 27.743 0.134
15.6364 27.364 0.133
15.7385 27.087 0.133
15.8406 27.373 0.133
15.9427 27.910 0.135
16.0447 28.684 0.137
16.1468 28.284 0.136
16.2489 27.993 0.135
16.3510 29.154 0.138
16.4530 39.863 0.161
16.5551 63.081 0.203
16.6572 43.290 0.168
16.7593 28.413 0.136
16.8613 28.042 0.135
16.9634 26.971 0.133
17.0655 30.439 0.141
17.1676 32.535 0.146
17.2696 46.654 0.174
17.3717 36.256 0.154
17.4738 26.515 0.131
17.5759 25.896 0.130
17.6779 26.066 0.130
17.7800 25.710 0.129
17.8821 25.614 0.129
17.9842 25.459 0.129
18.0862 24.929 0.127
18.1883 25.086 0.128
18.2904 24.766 0.127
18.3925 24.273 0.126
18.4945 24.382 0.126
18.5966 24.208 0.126
18.6987 23.839 0.125
18.8007 23.554 0.124
18.9028 23.048 0.122
19.0049 23.007 0.122
19.1070 23.174 0.123
19.2090 24.459 0.126
19.3111 25.581 0.129
19.4132 27.745 0.134
19.5153 27.445 0.134
19.6173 26.214 0.131
19.7194 26.274 0.131
19.8215 35.751 0.153
19.9236 108.239 0.265
20.0256 64.174 0.204
20.1277 29.723 0.139
20.2298 21.863 0.119
20.3319 20.301 0.115
20.4339 20.150 0.115
20.5360 19.566 0.113
20.6381 19.202 0.112
20.7402 18.917 0.111
20.8422 18.938 0.111
20.9443 18.637 0.110
21.0464 19.165 0.112
21.1485 19.125 0.112
21.2505 19.441 0.113
21.3526 19.100 0.112
21.4547 18.704 0.110
21.5567 18.921 0.111
21.6588 23.470 0.124
21.7609 28.408 0.136
21.8630 26.240 0.131
21.9650 18.257 0.109
22.0671 17.329 0.106
22.1692 17.083 0.105
22.2713 17.038 0.105
22.3733 16.794 0.105
22.4754 16.843 0.105
22.5775 16.652 0.104
22.6796 16.441 0.103
22.7816 16.299 0.103
22.8837 15.995 0.102
22.9858 16.072 0.102
23.0879 15.978 0.102
23.1899 15.622 0.101
23.2920 15.460 0.100
23.3941 15.328 0.100
23.4962 15.127 0.099
23.5982 15.318 0.100
23.7003 14.921 0.099
23.8024 15.016 0.099
23.9045 14.770 0.098
24.0065 14.671 0.098
24.1086 14.891 0.098
24.2107 14.847 0.098
24.3127 14.561 0.097
24.4148 14.658 0.098
24.5169 14.583 0.097
24.6190 14.441 0.097
24.7210 14.715 0.098
24.8231 14.372 0.097
24.9252 14.476 0.097
25.0273 14.286 0.096
25.1293 14.251 0.096
25.2314 15.126 0.099
25.3335 15.454 0.100
25.4356 15.406 0.100
25.5376 15.811 0.101
25.6397 15.313 0.100
25.7418 16.114 0.102
25.8439 20.574 0.116
25.9459 30.110 0.140
26.0480 21.525 0.118
26.1501 19.716 0.113
26.2522 15.640 0.101
26.3542 16.198 0.103
26.4563 17.494 0.107
26.5584 19.354 0.112
26.6605 22.409 0.121
26.7625 25.019 0.128
26.8646 28.636 0.137
26.9667 30.682 0.141
27.0688 31.463 0.143
27.1708 32.535 0.146
27.2729 30.199 0.140
27.3750 27.786 0.134
27.4770 25.177 0.128
27.5791 22.227 0.120
27.6812 20.467 0.115
27.7833 19.660 0.113
27.8853 18.799 0.111
27.9874 18.786 0.111
28.0895 18.440 0.110
28.1916 21.859 0.119
28.2936 39.023 0.159
28.3957 30.874 0.142
28.4978 40.854 0.163
28.5999 24.368 0.126
28.7019 19.557 0.113
28.8040 14.738 0.098
28.9061 14.382 0.097
29.0082 14.430 0.097
29.1102 15.104 0.099
29.2123 15.161 0.099
29.3144 15.434 0.100
29.4165 15.199 0.099
29.5185 15.277 0.100
29.6206 15.668 0.101
29.7227 22.034 0.120
29.8248 24.607 0.127
29.9268 19.889 0.114
30.0289 17.116 0.106
30.1310 14.063 0.096
30.2330 13.703 0.094
30.3351 13.520 0.094
30.4372 13.327 0.093
30.5393 13.801 0.095
30.6413 13.965 0.095
30.7434 14.309 0.097
30.8455 15.084 0.099
30.9476 15.681 0.101
31.0496 16.428 0.103
31.1517 17.145 0.106
31.2538 17.219 0.106
31.3559 17.863 0.108
31.4579 17.264 0.106
31.5600 16.445 0.103
31.6621 15.736 0.101
31.7642 14.576 0.097
31.8662 13.706 0.094
31.9683 13.018 0.092
32.0704 12.536 0.090
32.1725 12.421 0.090
32.2745 12.615 0.091
32.3766 12.639 0.091
32.4787 12.641 0.091
32.5808 12.755 0.091
32.6828 13.063 0.092
32.7849 13.300 0.093
32.8870 13.598 0.094
32.9890 13.971 0.095
33.0911 16.656 0.104
33.1932 16.581 0.104
33.2953 17.863 0.108
33.3973 18.893 0.111
33.4994 19.886 0.114
33.6015 15.706 0.101
33.7036 15.158 0.099
33.8056 12.718 0.091
33.9077 12.242 0.089
34.0098 12.072 0.089
34.1119 12.085 0.089
34.2139 12.317 0.090
34.3160 12.432 0.090
34.4181 12.505 0.090
34.5202 13.004 0.092
34.6171 13.269 0.093

File: NMC_3_GM_10tt50tt_05ts_6ks_bg_subtracted.xye
'Id: "" Comment: "" Operator: "Lab Manager" Anode: "Mo" Scantype: "Coupled TwoTheta/Theta" TimePerStep: "288" X: "9999" Y: "9999" Z: "9999"
10.0000 0.000 0.343
10.1429 -0.424 0.335
10.2858 -0.598 0.330
10.4287 0.311 0.330
10.5716 0.158 0.326
10.7145 0.098 0.322
10.8574 -0.030 0.320
11.0003 0.365 0.320
11.1432 0.157 0.317
11.2861 0.444 0.317
11.4290 1.056 0.318
11.5719 1.138 0.317
11.7148 1.307 0.316
11.8577 2.133 0.319
12.0007 2.247 0.317
12.1436 2.907 0.319
12.2865 3.230 0.319
12.4294 4.100 0.322
12.5723 3.982 0.319
12.7152 4.624 0.321
12.8581 4.642 0.319
13.0010 4.396 0.315
13.1439 4.325 0.313
13.2868 3.996 0.309
13.4297 4.315 0.309
13.5726 4.004 0.305
13.7155 3.757 0.301
13.8584 3.200 0.296
14.0013 2.632 0.290
14.1442 2.538 0.287
14.2871 2.515 0.285
14.4300 1.880 0.279
14.5729 1.563 0.274
14.7158 1.349 0.270
14.8587 1.342 0.268
15.0016 0.928 0.263
15.1445 0.647 0.258
15.2874 0.198 0.252
15.4303 0.509 0.252
15.5732 0.631 0.250
15.7162 -0.101 0.243
15.8591 0.188 0.243
16.0020 1.962 0.254
16.1449 3.887 0.266
16.2878 3.932 0.265
16.4307 15.580 0.331
16.5736 22.053 0.363
16.7165 3.563 0.258
16.8594 2.915 0.253
17.0023 3.748 0.257
17.1452 10.119 0.296
17.2881 12.248 0.307
17.4310 1.870 0.239
17.5739 0.142 0.225
17.7168 -0.010 0.222
17.8597 0.173 0.221
18.0026 0.004 0.218
18.1455 -0.069 0.216
18.2884 0.121 0.216
18.4313 -0.081 0.212
18.5742 0.188 0.212
18.7171 0.160 0.210
18.8600 0.383 0.211
19.0029 0.179 0.207
19.1458 0.197 0.206
19.2887 2.225 0.221
19.4316 7.398 0.257
19.5746 9.500 0.270
19.7175 10.806 0.277
19.8604 40.863 0.425
20.0033 32.965 0.391
20.1462 4.721 0.232
20.2891 0.292 0.194
20.4320 0.240 0.192
20.5749 -0.209 0.186
20.7178 0.046 0.187
20.8607 -0.063 0.184
21.0036 -0.135 0.182
21.1465 0.733 0.189
21.2894 1.687 0.196
21.4323 1.361 0.192
21.5752 3.655 0.210
21.7181 12.271 0.271
21.8610 5.949 0.226
22.0039 0.774 0.181
22.1468 0.264 0.174
22.2897 0.288 0.173
22.4326 0.329 0.172
22.5755 0.053 0.167
22.7184 0.369 0.169
22.8613 0.223 0.166
23.0042 0.116 0.163
23.1471 0.043 0.160
23.2901 0.198 0.160
23.4330 0.529 0.162
23.5759 0.189 0.157
23.7188 0.070 0.154
23.8617 0.262 0.155
24.0046 -0.126 0.150
24.1475 0.277 0.154
24.2904 0.315 0.154
24.4333 0.167 0.152
24.5762 0.154 0.152
24.7191 0.033 0.151
24.8620 -0.082 0.149
25.0049 0.029 0.151
25.1478 0.157 0.152
25.2907 0.405 0.156
25.4336 1.711 0.170
25.5765 2.141 0.175
25.7194 3.455 0.188
25.8623 9.580 0.238
26.0052 8.582 0.231
26.1481 4.364 0.197
26.2910 1.359 0.168
26.4339 3.257 0.187
26.5768 6.181 0.213
26.7197 9.856 0.241
26.8626 14.555 0.273
27.0055 17.017 0.288
27.1485 17.567 0.291
27.2914 15.932 0.282
27.4343 11.879 0.255
27.5772 7.825 0.226
27.7201 5.935 0.211
27.8630 5.309 0.206
28.0059 6.094 0.213
28.1488 11.191 0.251
28.2917 23.220 0.323
28.4346 24.630 0.331
28.5775 9.142 0.236
28.7204 2.619 0.182
28.8633 0.764 0.163
29.0062 0.256 0.157
29.1491 1.027 0.165
29.2920 1.588 0.171
29.4349 2.183 0.177
29.5778 3.412 0.188
29.7207 9.261 0.236
29.8636 7.054 0.219
30.0065 4.327 0.196
30.1494 0.308 0.155
30.2923 0.398 0.156
30.4352 0.178 0.153
30.5781 0.717 0.159
30.7210 1.137 0.163
30.8639 2.037 0.172
31.0069 3.059 0.181
31.1498 4.387 0.193
31.2927 4.816 0.197
31.4356 4.472 0.193
31.5785 3.459 0.183
31.7214 2.634 0.175
31.8643 1.296 0.160
32.0072 0.238 0.148
32.1501 0.220 0.147
32.2930 -0.026 0.144
32.4359 -0.152 0.142
32.5788 0.714 0.152
32.7217 1.062 0.156
32.8646 1.425 0.160
33.0075 2.683 0.173
33.1504 5.977 0.203
33.2933 6.545 0.208
33.4362 7.771 0.217
33.5791 3.898 0.184
33.7220 2.080 0.165
33.8649 -0.007 0.141
34.0078 -0.086 0.140
34.1507 0.205 0.143
34.2936 0.572 0.147
34.4365 0.986 0.152
34.5794 1.676 0.159
34.7224 4.000 0.183
34.8653 3.608 0.179
35.0082 7.614 0.214
35.1511 3.187 0.174
35.2940 2.968 0.171
35.4369 0.765 0.147
35.5798 1.185 0.151
35.7227 1.212 0.151
35.8656 3.710 0.177
36.0085 3.043 0.170
36.1514 3.597 0.175
36.2943 1.174 0.148
36.4372 0.663 0.141
36.5801 0.268 0.136
36.7230 0.112 0.133
36.8659 -0.129 0.129
37.0088 0.239 0.133
37.1517 0.105 0.130
37.2946 0.026 0.129
37.4375 -0.012 0.129
37.5804 0.171 0.131
37.7233 0.304 0.132
37.8662 0.159 0.130
38.0091 -0.246 0.125
38.1520 -0.120 0.126
38.2949 0.460 0.134
38.4378 0.697 0.136
38.5808 1.309 0.144
38.7237 1.599 0.147
38.8666 4.229 0.175
39.0095 2.239 0.154
39.1524 2.081 0.151
39.2953 0.286 0.129
39.4382 0.105 0.126
39.5811 -0.100 0.122
39.7240 -0.247 0.120
39.8669 0.066 0.124
40.0098 0.051 0.124
40.1527 0.340 0.128
40.2956 0.951 0.135
40.4385 1.228 0.139
40.5814 2.905 0.158
40.7243 1.405 0.140
40.8672 1.889 0.146
41.0101 0.545 0.128
41.1530 0.228 0.123
41.2959 0.771 0.130
41.4388 0.527 0.127
41.5817 0.411 0.124
41.7246 0.300 0.122
41.8675 0.167 0.120
42.0104 -0.124 0.115
42.1533 -0.124 0.115
42.2963 -0.019 0.116
42.4392 0.093 0.117
42.5821 0.037 0.116
42.7250 0.071 0.116
42.8679 0.120 0.117
43.0108 0.053 0.116
43.1537 -0.024 0.115
43.2966 0.124 0.118
43.4395 -0.011 0.116
43.5824 0.217 0.120
43.7253 0.923 0.130
43.8682 1.038 0.132
44.0111 1.536 0.138
44.1540 2.613 0.151
44.2969 3.547 0.162
44.4398 2.847 0.154
44.5827 3.232 0.158
44.7256 0.954 0.131
44.8685 1.073 0.133
45.0114 0.721 0.128
45.1543 0.782 0.129
45.2972 1.925 0.143
45.4401 2.789 0.153
45.5830 4.509 0.171
45.7259 4.915 0.175
45.8688 4.094 0.167
46.0117 2.081 0.144
46.1547 1.195 0.133
46.2976 0.679 0.126
46.4405 1.241 0.133
46.5834 1.653 0.138
46.7263 1.349 0.134
46.8692 0.907 0.127
47.0121 0.430 0.120
47.1550 -0.084 0.112
47.2979 0.098 0.114
47.4408 0.297 0.117
47.5837 0.009 0.112
47.7266 0.046 0.112
47.8695 0.265 0.114
48.0124 -0.130 0.108
48.1553 0.123 0.112
48.2982 0.008 0.110
48.4411 -0.066 0.109
48.5840 0.084 0.112
48.7269 0.406 0.117
48.8698 0.994 0.126
49.0127 1.487 0.133
49.1556 0.507 0.119
49.2985 0.612 0.121
49.4414 0.379 0.117
49.5843 0.190 0.115
49.7272 0.311 0.116
49.8702 0.658 0.121
50.0131 1.607 0.134
50.1560 1.492 0.133
50.2989 2.539 0.146
50.4418 3.251 0.154
50.5847 1.692 0.135
50.7276 2.412 0.144
50.8705 1.040 0.126
51.0134 0.855 0.123
51.1563 0.651 0.120
51.2992 1.255 0.128
51.4421 0.555 0.117
51.5850 0.309 0.113
51.7279 0.099 0.110
51.8708 0.102 0.109
52.0137 0.212 0.110
52.1566 -0.045 0.106
52.2995 -0.079 0.105
52.4424 -0.130 0.105
52.5853 0.084 0.109
52.7282 0.243 0.114
52.8640 0.000 0.113