Folder: Thickness_Effect/Data/Data_220203_NMC/XRD

Note: README.md
# Thickness_Effect

My battery data analysis project

File: 220203_NMC_800_exported.xye
'Id: "" Comment: "" Operator: "Lab Manager" Anode: "Mo" Scantype: "Coupled TwoTheta/Theta" TimePerStep: "19.2" X: "9999" Y: "9999" Z: "9999"
10.0000 0.000 2.058
10.1429 3.568 2.049
10.2858 8.054 2.087
10.4287 2.497 1.997
10.5716 0.126 1.946
10.7145 -1.038 1.910
10.8574 -0.111 1.902
11.0003 -0.562 1.889
11.1432 -1.176 1.876
11.2861 -1.261 1.871
11.4290 -1.858 1.858
11.5719 2.194 1.910
11.7148 4.172 1.933
11.8577 2.668 1.909
12.0007 5.288 1.941
12.1436 7.344 1.965
12.2865 10.346 2.000
12.4294 11.065 2.006
12.5723 11.012 2.001
12.7152 15.186 2.051
12.8581 15.359 2.049
13.0010 18.457 2.083
13.1439 11.824 1.994
13.2868 14.888 2.029
13.4297 16.241 2.042
13.5726 13.281 1.999
13.7155 12.569 1.985
13.8584 15.876 2.023
14.0013 15.806 2.017
14.1442 9.860 1.933
14.2871 11.058 1.943
14.4300 10.962 1.936
14.5729 7.230 1.879
14.7158 6.058 1.857
14.8587 5.520 1.843
15.0016 8.064 1.872
15.1445 2.128 1.781
15.2874 4.793 1.812
15.4303 4.968 1.808
15.5732 -0.214 1.724
15.7162 2.218 1.753
15.8591 2.835 1.755
16.0020 1.430 1.726
16.1449 -0.695 1.685
16.2878 1.303 1.708
16.4307 4.258 1.747
16.5736 10.476 1.833
16.7165 9.151 1.810
16.8594 2.626 1.709
17.0023 0.485 1.672
17.1452 1.894 1.688
17.2881 7.062 1.762
17.4310 9.583 1.794
17.5739 4.508 1.713
17.7168 3.297 1.689
17.8597 2.771 1.676
18.0026 4.650 1.699
18.1455 2.944 1.667
18.2884 3.173 1.664
18.4313 3.516 1.663
18.5742 7.305 1.716
18.7171 5.478 1.681
18.8600 6.576 1.692
19.0029 2.839 1.626
19.1458 1.038 1.590
19.2887 1.589 1.592
19.4316 2.462 1.599
19.5746 5.688 1.643
19.7175 6.422 1.647
19.8604 6.956 1.648
20.0033 41.562 2.119
20.1462 40.708 2.103
20.2891 32.155 1.987
20.4320 6.631 1.610
20.5749 1.845 1.522
20.7178 1.494 1.507
20.8607 2.299 1.511
21.0036 -1.471 1.435
21.1465 0.705 1.464
21.2894 1.379 1.466
21.4323 -0.906 1.414
21.5752 0.984 1.438
21.7181 1.476 1.436
21.8610 1.769 1.430
22.0039 5.092 1.479
22.1468 3.527 1.440
22.2897 -0.766 1.349
22.4326 0.457 1.364
22.5755 -0.245 1.346
22.7184 0.105 1.348
22.8613 0.879 1.358
23.0042 3.798 1.408
23.1471 2.298 1.375
23.2901 -2.942 1.266
23.4330 1.140 1.343
23.5759 -0.549 1.305
23.7188 1.885 1.348
23.8617 -2.652 1.252
24.0046 0.112 1.303
24.1475 0.332 1.302
24.2904 1.135 1.312
24.4333 1.737 1.319
24.5762 0.630 1.291
24.7191 -1.823 1.234
24.8620 1.295 1.293
25.0049 2.494 1.311
25.1478 2.347 1.303
25.2907 1.168 1.274
25.4336 2.043 1.288
25.5765 0.535 1.259
25.7194 1.061 1.270
25.8623 4.357 1.337
26.0052 10.422 1.451
26.1481 5.298 1.356
26.2910 1.693 1.285
26.4339 1.378 1.279
26.5768 6.176 1.373
26.7197 11.087 1.463
26.8626 12.830 1.493
27.0055 17.550 1.573
27.1485 18.685 1.591
27.2914 14.256 1.516
27.4343 11.190 1.461
27.5772 8.498 1.411
27.7201 2.585 1.296
27.8630 0.379 1.249
28.0059 -1.038 1.217
28.1488 0.992 1.258
28.2917 3.396 1.304
28.4346 9.141 1.412
28.5775 19.791 1.594
28.7204 36.648 1.847
28.8633 19.764 1.589
29.0062 2.055 1.263
29.1491 3.053 1.280
29.2920 0.309 1.219
29.4349 -1.905 1.167
29.5778 -0.011 1.206
29.7207 3.310 1.275
29.8636 9.087 1.387
30.0065 4.822 1.303
30.1494 1.086 1.225
30.2923 -0.141 1.197
30.4352 -0.164 1.195
30.5781 1.124 1.220
30.7210 1.900 1.235
30.8639 1.643 1.227
31.0069 3.738 1.268
31.1498 6.051 1.312
31.2927 7.070 1.330
31.4356 6.484 1.316
31.5785 5.385 1.291
31.7214 2.420 1.226
31.8643 2.277 1.219
32.0072 2.976 1.230
32.1501 0.520 1.177
32.2930 1.901 1.209
32.4359 0.114 1.172
32.5788 3.544 1.247
32.7217 1.098 1.196
32.8646 -0.299 1.166
33.0075 0.085 1.175
33.1504 3.082 1.240
33.2933 2.024 1.218
33.4362 6.445 1.309
33.5791 5.353 1.287
33.7220 14.999 1.469
33.8649 13.352 1.440
34.0078 26.766 1.664
34.1507 1.074 1.196
34.2936 -0.495 1.160
34.4365 0.810 1.188
34.5794 -0.064 1.167
34.7224 -0.044 1.166
34.8653 2.797 1.226
35.0082 2.679 1.221
35.1511 4.236 1.252
35.2940 0.645 1.173
35.4369 0.970 1.177
35.5798 0.261 1.159
35.7227 1.541 1.184
35.8656 0.017 1.147
36.0085 3.449 1.219
36.1514 1.943 1.183
36.2943 3.726 1.218
36.4372 0.362 1.140
36.5801 1.330 1.158
36.7230 1.108 1.148
36.8659 -0.250 1.112
37.0088 1.425 1.147
37.1517 1.692 1.151
37.2946 -0.272 1.102
37.4375 4.179 1.200
37.5804 1.399 1.135
37.7233 3.055 1.169
37.8662 1.178 1.123
38.0091 0.351 1.100
38.1520 -1.039 1.062
38.2949 -0.025 1.083
38.4378 -0.044 1.078
38.5808 0.452 1.085
38.7237 0.297 1.078
38.8666 0.724 1.084
39.0095 3.816 1.152
39.1524 1.708 1.099
39.2953 1.068 1.079
39.4382 -0.554 1.034
39.5811 -1.281 1.010
39.7240 0.070 1.039
39.8669 -1.206 1.003
40.0098 -0.495 1.018
40.1527 0.538 1.040
40.2956 1.110 1.051
40.4385 -0.652 1.002
40.5814 -0.698 0.996
40.7243 0.826 1.031
40.8672 0.118 1.009
41.0101 1.816 1.047
41.1530 0.345 1.005
41.2959 2.112 1.044
41.4388 2.221 1.042
41.5817 -0.005 0.979
41.7246 0.070 0.974
41.8675 -0.940 0.940
42.0104 0.061 0.966
42.1533 1.332 0.998
42.2963 0.633 0.977
42.4392 1.348 0.994
42.5821 -1.750 0.907
42.7250 -0.065 0.955
42.8679 0.119 0.960
43.0108 1.665 1.002
43.1537 0.616 0.974
43.2966 1.347 0.994
43.4395 -0.831 0.935
43.5824 -1.176 0.924
43.7253 0.362 0.966
43.8682 -0.435 0.943
44.0111 0.027 0.955
44.1540 0.863 0.976
44.2969 -0.325 0.942
44.4398 0.737 0.969
44.5827 3.265 1.033
44.7256 2.104 1.000
44.8685 2.515 1.009
45.0114 0.538 0.953
45.1543 -0.544 0.920
45.2972 1.398 0.970
45.4401 -0.645 0.911
45.5830 3.519 1.021
45.7259 0.296 0.932
45.8688 2.759 0.995
46.0117 2.626 0.988
46.1547 4.742 1.039
46.2976 1.462 0.950
46.4405 1.006 0.937
46.5834 -0.119 0.905
46.7263 1.057 0.937
46.8692 2.085 0.965
47.0121 0.101 0.908
47.1550 0.366 0.914
47.2979 0.744 0.923
47.4408 -0.016 0.899
47.5837 0.015 0.898
47.7266 1.721 0.943
47.8695 0.780 0.914
48.0124 1.097 0.920
48.1553 0.173 0.890
48.2982 1.342 0.920
48.4411 1.529 0.921
48.5840 0.163 0.878
48.7269 0.957 0.899
48.8698 0.705 0.893
49.0127 -0.684 0.853
49.1556 1.737 0.924
49.2985 1.303 0.913
49.4414 0.930 0.902
49.5843 1.243 0.911
49.7272 0.471 0.888
49.8702 0.384 0.885
49.9926 0.000 0.851